onset	duration	block_duration	movement_onset	planning	condition	exp_stage	experiment_exp_id	key_press	problem_id	response_time	trial_id	trial_type	worker_id	junk
3.013	4.893	4.893	7.906	1	UA_with_intermediate	practice	ward_and_allport	71	0.0	4.893	to_hand	poldrack-single-stim	s061	False
7.909	0.1	2.216	10.125	0	UA_with_intermediate	practice	ward_and_allport	71	0.0	2.216	to_board	poldrack-single-stim	s061	False
10.13	0.1	0.786	10.916	0	UA_with_intermediate	practice	ward_and_allport	71	0.0	0.786	to_hand	poldrack-single-stim	s061	False
10.918	0.1	1.006	11.924	0	UA_with_intermediate	practice	ward_and_allport	82	0.0	1.006	to_board	poldrack-single-stim	s061	False
11.926	0.1	0.595	12.521	0	UA_with_intermediate	practice	ward_and_allport	71	0.0	0.595	to_hand	poldrack-single-stim	s061	False
12.523	0.1	0.487	13.01	0	UA_with_intermediate	practice	ward_and_allport	89	0.0	0.487	to_board	poldrack-single-stim	s061	False
13.015	0.1	0.921	13.936	0	UA_with_intermediate	practice	ward_and_allport	82	0.0	0.921	to_hand	poldrack-single-stim	s061	False
13.939	0.1	0.893	14.832	0	UA_with_intermediate	practice	ward_and_allport	89	0.0	0.893	to_board	poldrack-single-stim	s061	False
14.839	1.0	2.5	14.838	0	UA_with_intermediate	practice	ward_and_allport	-1	0.0	n/a	feedback	poldrack-single-stim	s061	False
17.343	4.654	4.654	21.997	1	UA_with_intermediate	practice	ward_and_allport	89	1.0	4.654	to_hand	poldrack-single-stim	s061	False
21.999	0.1	1.079	23.078	0	UA_with_intermediate	practice	ward_and_allport	82	1.0	1.079	to_board	poldrack-single-stim	s061	False
23.081	0.1	0.689	23.77	0	UA_with_intermediate	practice	ward_and_allport	71	1.0	0.689	to_hand	poldrack-single-stim	s061	False
23.772	0.1	0.42	24.192	0	UA_with_intermediate	practice	ward_and_allport	89	1.0	0.42	to_board	poldrack-single-stim	s061	False
24.196	0.1	1.075	25.271	0	UA_with_intermediate	practice	ward_and_allport	82	1.0	1.075	to_hand	poldrack-single-stim	s061	False
25.273	0.1	0.449	25.722	0	UA_with_intermediate	practice	ward_and_allport	89	1.0	0.449	to_board	poldrack-single-stim	s061	False
25.727	1.0	2.1	25.726	0	UA_with_intermediate	practice	ward_and_allport	-1	1.0	n/a	feedback	poldrack-single-stim	s061	False
27.831	2.893	2.893	30.724	1	UA_without_intermediate	practice	ward_and_allport	71	2.0	2.893	to_hand	poldrack-single-stim	s061	False
30.726	0.1	0.44	31.166	0	UA_without_intermediate	practice	ward_and_allport	82	2.0	0.44	to_board	poldrack-single-stim	s061	False
31.171	0.1	0.447	31.618	0	UA_without_intermediate	practice	ward_and_allport	71	2.0	0.447	to_hand	poldrack-single-stim	s061	False
31.62	0.1	0.343	31.963	0	UA_without_intermediate	practice	ward_and_allport	82	2.0	0.343	to_board	poldrack-single-stim	s061	False
31.968	0.1	4.082	36.05	0	UA_without_intermediate	practice	ward_and_allport	82	2.0	4.082	to_hand	poldrack-single-stim	s061	False
36.053	0.1	0.831	36.884	0	UA_without_intermediate	practice	ward_and_allport	71	2.0	0.831	to_board	poldrack-single-stim	s061	False
36.887	0.1	0.636	37.523	0	UA_without_intermediate	practice	ward_and_allport	82	2.0	0.636	to_hand	poldrack-single-stim	s061	False
37.526	0.1	0.802	38.328	0	UA_without_intermediate	practice	ward_and_allport	71	2.0	0.802	to_board	poldrack-single-stim	s061	False
38.336	0.1	0.446	38.782	0	UA_without_intermediate	practice	ward_and_allport	82	2.0	0.446	to_hand	poldrack-single-stim	s061	False
38.784	0.1	0.595	39.379	0	UA_without_intermediate	practice	ward_and_allport	89	2.0	0.595	to_board	poldrack-single-stim	s061	False
39.386	0.1	1.496	40.882	0	UA_without_intermediate	practice	ward_and_allport	71	2.0	1.496	to_hand	poldrack-single-stim	s061	False
40.884	0.1	0.413	41.297	0	UA_without_intermediate	practice	ward_and_allport	89	2.0	0.413	to_board	poldrack-single-stim	s061	False
41.302	0.1	0.622	41.924	0	UA_without_intermediate	practice	ward_and_allport	71	2.0	0.622	to_hand	poldrack-single-stim	s061	False
41.928	0.1	0.388	42.316	0	UA_without_intermediate	practice	ward_and_allport	89	2.0	0.388	to_board	poldrack-single-stim	s061	False
42.323	1.0	2.2	42.322	0	UA_without_intermediate	practice	ward_and_allport	-1	2.0	n/a	feedback	poldrack-single-stim	s061	False
44.527	2.66	2.66	47.187	1	UA_without_intermediate	practice	ward_and_allport	71	3.0	2.66	to_hand	poldrack-single-stim	s061	False
47.189	0.1	0.438	47.627	0	UA_without_intermediate	practice	ward_and_allport	89	3.0	0.438	to_board	poldrack-single-stim	s061	False
47.631	0.1	1.038	48.669	0	UA_without_intermediate	practice	ward_and_allport	71	3.0	1.038	to_hand	poldrack-single-stim	s061	False
48.67	0.1	0.421	49.091	0	UA_without_intermediate	practice	ward_and_allport	89	3.0	0.421	to_board	poldrack-single-stim	s061	False
49.096	0.1	0.416	49.512	0	UA_without_intermediate	practice	ward_and_allport	82	3.0	0.416	to_hand	poldrack-single-stim	s061	False
49.514	0.1	0.309	49.823	0	UA_without_intermediate	practice	ward_and_allport	89	3.0	0.309	to_board	poldrack-single-stim	s061	False
49.828	0.1	3.873	53.701	0	UA_without_intermediate	practice	ward_and_allport	89	3.0	3.873	to_hand	poldrack-single-stim	s061	False
53.703	0.1	0.789	54.492	0	UA_without_intermediate	practice	ward_and_allport	71	3.0	0.789	to_board	poldrack-single-stim	s061	False
54.497	0.1	1.034	55.531	0	UA_without_intermediate	practice	ward_and_allport	89	3.0	1.034	to_hand	poldrack-single-stim	s061	False
55.533	0.1	1.117	56.65	0	UA_without_intermediate	practice	ward_and_allport	82	3.0	1.117	to_board	poldrack-single-stim	s061	False
56.657	0.1	0.812	57.469	0	UA_without_intermediate	practice	ward_and_allport	71	3.0	0.812	to_hand	poldrack-single-stim	s061	False
57.471	0.1	0.367	57.838	0	UA_without_intermediate	practice	ward_and_allport	89	3.0	0.367	to_board	poldrack-single-stim	s061	False
57.842	0.1	0.531	58.373	0	UA_without_intermediate	practice	ward_and_allport	82	3.0	0.531	to_hand	poldrack-single-stim	s061	False
58.376	0.1	0.355	58.731	0	UA_without_intermediate	practice	ward_and_allport	89	3.0	0.355	to_board	poldrack-single-stim	s061	False
58.737	1.0	2.0	58.736	0	UA_without_intermediate	practice	ward_and_allport	-1	3.0	n/a	feedback	poldrack-single-stim	s061	False
62.746	2.077	2.077	64.823	1	PA_without_intermediate	test	ward_and_allport	71	0.0	2.077	to_hand	poldrack-single-stim	s061	False
64.825	0.1	0.724	65.549	0	PA_without_intermediate	test	ward_and_allport	82	0.0	0.724	to_board	poldrack-single-stim	s061	False
65.555	0.1	0.576	66.131	0	PA_without_intermediate	test	ward_and_allport	71	0.0	0.576	to_hand	poldrack-single-stim	s061	False
66.133	0.1	0.924	67.057	0	PA_without_intermediate	test	ward_and_allport	89	0.0	0.924	to_board	poldrack-single-stim	s061	False
67.062	0.1	2.14	69.202	0	PA_without_intermediate	test	ward_and_allport	71	0.0	2.14	to_hand	poldrack-single-stim	s061	False
69.205	0.1	0.366	69.571	0	PA_without_intermediate	test	ward_and_allport	82	0.0	0.366	to_board	poldrack-single-stim	s061	False
69.578	1.0	3.088	69.577	0	PA_without_intermediate	test	ward_and_allport	-1	0.0	n/a	feedback	poldrack-single-stim	s061	False
72.671	4.157	4.157	76.828	1	PA_with_intermediate	test	ward_and_allport	82	1.0	4.157	to_hand	poldrack-single-stim	s061	False
76.83	0.1	3.332	80.162	0	PA_with_intermediate	test	ward_and_allport	71	1.0	3.332	to_board	poldrack-single-stim	s061	False
80.17	0.1	1.355	81.525	0	PA_with_intermediate	test	ward_and_allport	82	1.0	1.355	to_hand	poldrack-single-stim	s061	False
81.527	0.1	1.105	82.632	0	PA_with_intermediate	test	ward_and_allport	89	1.0	1.105	to_board	poldrack-single-stim	s061	False
82.638	0.1	0.766	83.404	0	PA_with_intermediate	test	ward_and_allport	71	1.0	0.766	to_hand	poldrack-single-stim	s061	False
83.406	0.1	0.471	83.877	0	PA_with_intermediate	test	ward_and_allport	82	1.0	0.471	to_board	poldrack-single-stim	s061	False
83.885	1.0	2.0	83.884	0	PA_with_intermediate	test	ward_and_allport	-1	1.0	n/a	feedback	poldrack-single-stim	s061	False
85.89	3.025	3.025	88.915	1	PA_without_intermediate	test	ward_and_allport	71	2.0	3.025	to_hand	poldrack-single-stim	s061	False
88.918	0.1	1.089	90.007	0	PA_without_intermediate	test	ward_and_allport	82	2.0	1.089	to_board	poldrack-single-stim	s061	False
90.016	0.1	0.762	90.778	0	PA_without_intermediate	test	ward_and_allport	71	2.0	0.762	to_hand	poldrack-single-stim	s061	False
90.78	0.1	0.756	91.536	0	PA_without_intermediate	test	ward_and_allport	89	2.0	0.756	to_board	poldrack-single-stim	s061	False
91.544	0.1	0.494	92.038	0	PA_without_intermediate	test	ward_and_allport	71	2.0	0.494	to_hand	poldrack-single-stim	s061	False
92.041	0.1	0.542	92.583	0	PA_without_intermediate	test	ward_and_allport	82	2.0	0.542	to_board	poldrack-single-stim	s061	False
92.593	1.0	2.0	92.592	0	PA_without_intermediate	test	ward_and_allport	-1	2.0	n/a	feedback	poldrack-single-stim	s061	False
94.6	4.387	4.387	98.987	1	PA_without_intermediate	test	ward_and_allport	89	3.0	4.387	to_hand	poldrack-single-stim	s061	False
98.989	0.1	1.507	100.496	0	PA_without_intermediate	test	ward_and_allport	71	3.0	1.507	to_board	poldrack-single-stim	s061	False
100.505	0.1	3.038	103.543	0	PA_without_intermediate	test	ward_and_allport	71	3.0	3.038	to_hand	poldrack-single-stim	s061	False
103.545	0.1	1.039	104.584	0	PA_without_intermediate	test	ward_and_allport	71	3.0	1.039	to_board	poldrack-single-stim	s061	False
104.592	0.1	0.582	105.174	0	PA_without_intermediate	test	ward_and_allport	89	3.0	0.582	to_hand	poldrack-single-stim	s061	False
105.176	0.1	1.216	106.392	0	PA_without_intermediate	test	ward_and_allport	71	3.0	1.216	to_board	poldrack-single-stim	s061	False
106.401	0.1	0.868	107.269	0	PA_without_intermediate	test	ward_and_allport	89	3.0	0.868	to_hand	poldrack-single-stim	s061	False
107.271	0.1	0.398	107.669	0	PA_without_intermediate	test	ward_and_allport	82	3.0	0.398	to_board	poldrack-single-stim	s061	False
107.678	1.0	2.0	107.677	0	PA_without_intermediate	test	ward_and_allport	-1	3.0	n/a	feedback	poldrack-single-stim	s061	False
109.687	3.4	3.4	113.087	1	PA_with_intermediate	test	ward_and_allport	82	4.0	3.4	to_hand	poldrack-single-stim	s061	False
113.089	0.1	1.708	114.797	0	PA_with_intermediate	test	ward_and_allport	89	4.0	1.708	to_board	poldrack-single-stim	s061	False
114.806	0.1	0.991	115.797	0	PA_with_intermediate	test	ward_and_allport	82	4.0	0.991	to_hand	poldrack-single-stim	s061	False
115.799	0.1	0.917	116.716	0	PA_with_intermediate	test	ward_and_allport	71	4.0	0.917	to_board	poldrack-single-stim	s061	False
116.724	0.1	0.693	117.417	0	PA_with_intermediate	test	ward_and_allport	89	4.0	0.693	to_hand	poldrack-single-stim	s061	False
117.419	0.1	0.366	117.785	0	PA_with_intermediate	test	ward_and_allport	82	4.0	0.366	to_board	poldrack-single-stim	s061	False
117.793	1.0	2.544	117.792	0	PA_with_intermediate	test	ward_and_allport	-1	4.0	n/a	feedback	poldrack-single-stim	s061	False
120.345	2.49	2.49	122.835	1	PA_without_intermediate	test	ward_and_allport	71	5.0	2.49	to_hand	poldrack-single-stim	s061	False
122.837	0.1	0.827	123.664	0	PA_without_intermediate	test	ward_and_allport	82	5.0	0.827	to_board	poldrack-single-stim	s061	False
123.672	0.1	0.672	124.344	0	PA_without_intermediate	test	ward_and_allport	71	5.0	0.672	to_hand	poldrack-single-stim	s061	False
124.346	0.1	0.994	125.34	0	PA_without_intermediate	test	ward_and_allport	82	5.0	0.994	to_board	poldrack-single-stim	s061	False
125.349	0.1	0.468	125.817	0	PA_without_intermediate	test	ward_and_allport	71	5.0	0.468	to_hand	poldrack-single-stim	s061	False
125.819	0.1	0.329	126.148	0	PA_without_intermediate	test	ward_and_allport	89	5.0	0.329	to_board	poldrack-single-stim	s061	False
126.16	1.0	2.272	126.159	0	PA_without_intermediate	test	ward_and_allport	-1	5.0	n/a	feedback	poldrack-single-stim	s061	False
128.441	2.243	2.243	130.684	1	PA_with_intermediate	test	ward_and_allport	71	6.0	2.243	to_hand	poldrack-single-stim	s061	False
130.686	0.1	2.51	133.196	0	PA_with_intermediate	test	ward_and_allport	82	6.0	2.51	to_board	poldrack-single-stim	s061	False
133.205	0.1	0.482	133.687	0	PA_with_intermediate	test	ward_and_allport	71	6.0	0.482	to_hand	poldrack-single-stim	s061	False
133.689	0.1	0.763	134.452	0	PA_with_intermediate	test	ward_and_allport	89	6.0	0.763	to_board	poldrack-single-stim	s061	False
134.46	0.1	1.184	135.644	0	PA_with_intermediate	test	ward_and_allport	82	6.0	1.184	to_hand	poldrack-single-stim	s061	False
135.645	0.1	0.64	136.285	0	PA_with_intermediate	test	ward_and_allport	71	6.0	0.64	to_board	poldrack-single-stim	s061	False
136.295	1.0	4.04	136.294	0	PA_with_intermediate	test	ward_and_allport	-1	6.0	n/a	feedback	poldrack-single-stim	s061	False
140.346	3.656	3.656	144.002	1	PA_with_intermediate	test	ward_and_allport	89	7.0	3.656	to_hand	poldrack-single-stim	s061	False
144.004	0.1	1.822	145.826	0	PA_with_intermediate	test	ward_and_allport	82	7.0	1.822	to_board	poldrack-single-stim	s061	False
145.835	0.1	1.199	147.034	0	PA_with_intermediate	test	ward_and_allport	89	7.0	1.199	to_hand	poldrack-single-stim	s061	False
147.036	0.1	0.56	147.596	0	PA_with_intermediate	test	ward_and_allport	71	7.0	0.56	to_board	poldrack-single-stim	s061	False
147.606	0.1	1.26	148.866	0	PA_with_intermediate	test	ward_and_allport	82	7.0	1.26	to_hand	poldrack-single-stim	s061	False
148.87	0.1	0.391	149.261	0	PA_with_intermediate	test	ward_and_allport	89	7.0	0.391	to_board	poldrack-single-stim	s061	False
149.272	1.0	2.272	149.271	0	PA_with_intermediate	test	ward_and_allport	-1	7.0	n/a	feedback	poldrack-single-stim	s061	False
151.555	4.657	4.657	156.212	1	PA_with_intermediate	test	ward_and_allport	89	8.0	4.657	to_hand	poldrack-single-stim	s061	False
156.214	0.1	1.334	157.548	0	PA_with_intermediate	test	ward_and_allport	82	8.0	1.334	to_board	poldrack-single-stim	s061	False
157.558	0.1	0.979	158.537	0	PA_with_intermediate	test	ward_and_allport	89	8.0	0.979	to_hand	poldrack-single-stim	s061	False
158.54	0.1	0.509	159.049	0	PA_with_intermediate	test	ward_and_allport	71	8.0	0.509	to_board	poldrack-single-stim	s061	False
159.058	0.1	1.055	160.113	0	PA_with_intermediate	test	ward_and_allport	82	8.0	1.055	to_hand	poldrack-single-stim	s061	False
160.115	0.1	0.514	160.629	0	PA_with_intermediate	test	ward_and_allport	71	8.0	0.514	to_board	poldrack-single-stim	s061	False
160.64	1.0	2.136	160.639	0	PA_with_intermediate	test	ward_and_allport	-1	8.0	n/a	feedback	poldrack-single-stim	s061	False
162.787	3.235	3.235	166.022	1	PA_with_intermediate	test	ward_and_allport	71	9.0	3.235	to_hand	poldrack-single-stim	s061	False
166.024	0.1	1.018	167.042	0	PA_with_intermediate	test	ward_and_allport	89	9.0	1.018	to_board	poldrack-single-stim	s061	False
167.053	0.1	0.472	167.525	0	PA_with_intermediate	test	ward_and_allport	71	9.0	0.472	to_hand	poldrack-single-stim	s061	False
167.527	0.1	0.413	167.94	0	PA_with_intermediate	test	ward_and_allport	82	9.0	0.413	to_board	poldrack-single-stim	s061	False
167.952	0.1	0.948	168.9	0	PA_with_intermediate	test	ward_and_allport	89	9.0	0.948	to_hand	poldrack-single-stim	s061	False
168.902	0.1	0.482	169.384	0	PA_with_intermediate	test	ward_and_allport	82	9.0	0.482	to_board	poldrack-single-stim	s061	False
169.396	1.0	2.0	169.395	0	PA_with_intermediate	test	ward_and_allport	-1	9.0	n/a	feedback	poldrack-single-stim	s061	False
171.407	2.087	2.087	173.494	1	PA_with_intermediate	test	ward_and_allport	71	10.0	2.087	to_hand	poldrack-single-stim	s061	False
173.497	0.1	1.595	175.092	0	PA_with_intermediate	test	ward_and_allport	89	10.0	1.595	to_board	poldrack-single-stim	s061	False
175.104	0.1	0.524	175.628	0	PA_with_intermediate	test	ward_and_allport	71	10.0	0.524	to_hand	poldrack-single-stim	s061	False
175.629	0.1	0.435	176.064	0	PA_with_intermediate	test	ward_and_allport	82	10.0	0.435	to_board	poldrack-single-stim	s061	False
176.075	0.1	0.631	176.706	0	PA_with_intermediate	test	ward_and_allport	89	10.0	0.631	to_hand	poldrack-single-stim	s061	False
176.709	0.1	1.098	177.807	0	PA_with_intermediate	test	ward_and_allport	71	10.0	1.098	to_board	poldrack-single-stim	s061	False
177.82	1.0	2.0	177.819	0	PA_with_intermediate	test	ward_and_allport	-1	10.0	n/a	feedback	poldrack-single-stim	s061	False
179.831	4.364	4.364	184.195	1	PA_without_intermediate	test	ward_and_allport	82	11.0	4.364	to_hand	poldrack-single-stim	s061	False
184.197	0.1	0.404	184.601	0	PA_without_intermediate	test	ward_and_allport	89	11.0	0.404	to_board	poldrack-single-stim	s061	False
184.614	0.1	0.984	185.598	0	PA_without_intermediate	test	ward_and_allport	82	11.0	0.984	to_hand	poldrack-single-stim	s061	False
185.601	0.1	0.596	186.197	0	PA_without_intermediate	test	ward_and_allport	71	11.0	0.596	to_board	poldrack-single-stim	s061	False
186.205	0.1	2.062	188.267	0	PA_without_intermediate	test	ward_and_allport	82	11.0	2.062	to_hand	poldrack-single-stim	s061	False
188.269	0.1	0.554	188.823	0	PA_without_intermediate	test	ward_and_allport	89	11.0	0.554	to_board	poldrack-single-stim	s061	False
188.834	1.0	2.408	188.833	0	PA_without_intermediate	test	ward_and_allport	-1	11.0	n/a	feedback	poldrack-single-stim	s061	False
191.256	3.945	3.945	195.201	1	PA_with_intermediate	test	ward_and_allport	89	12.0	3.945	to_hand	poldrack-single-stim	s061	False
195.202	0.1	0.402	195.604	0	PA_with_intermediate	test	ward_and_allport	71	12.0	0.402	to_board	poldrack-single-stim	s061	False
195.615	0.1	0.657	196.272	0	PA_with_intermediate	test	ward_and_allport	89	12.0	0.657	to_hand	poldrack-single-stim	s061	False
196.274	0.1	0.47	196.744	0	PA_with_intermediate	test	ward_and_allport	82	12.0	0.47	to_board	poldrack-single-stim	s061	False
196.757	0.1	1.322	198.079	0	PA_with_intermediate	test	ward_and_allport	71	12.0	1.322	to_hand	poldrack-single-stim	s061	False
198.082	0.1	0.435	198.517	0	PA_with_intermediate	test	ward_and_allport	89	12.0	0.435	to_board	poldrack-single-stim	s061	False
198.531	1.0	3.768	198.53	0	PA_with_intermediate	test	ward_and_allport	-1	12.0	n/a	feedback	poldrack-single-stim	s061	False
202.314	2.367	2.367	204.681	1	PA_with_intermediate	test	ward_and_allport	82	13.0	2.367	to_hand	poldrack-single-stim	s061	False
204.683	0.1	1.267	205.95	0	PA_with_intermediate	test	ward_and_allport	71	13.0	1.267	to_board	poldrack-single-stim	s061	False
205.962	0.1	3.314	209.276	0	PA_with_intermediate	test	ward_and_allport	82	13.0	3.314	to_hand	poldrack-single-stim	s061	False
209.278	0.1	0.576	209.854	0	PA_with_intermediate	test	ward_and_allport	89	13.0	0.576	to_board	poldrack-single-stim	s061	False
209.865	0.1	0.426	210.291	0	PA_with_intermediate	test	ward_and_allport	71	13.0	0.426	to_hand	poldrack-single-stim	s061	False
210.293	0.1	0.344	210.637	0	PA_with_intermediate	test	ward_and_allport	89	13.0	0.344	to_board	poldrack-single-stim	s061	False
210.649	1.0	2.68	210.648	0	PA_with_intermediate	test	ward_and_allport	-1	13.0	n/a	feedback	poldrack-single-stim	s061	False
213.341	3.363	3.363	216.704	1	PA_without_intermediate	test	ward_and_allport	82	14.0	3.363	to_hand	poldrack-single-stim	s061	False
216.708	0.1	1.055	217.763	0	PA_without_intermediate	test	ward_and_allport	71	14.0	1.055	to_board	poldrack-single-stim	s061	False
217.776	0.1	1.505	219.281	0	PA_without_intermediate	test	ward_and_allport	82	14.0	1.505	to_hand	poldrack-single-stim	s061	False
219.284	0.1	0.57	219.854	0	PA_without_intermediate	test	ward_and_allport	89	14.0	0.57	to_board	poldrack-single-stim	s061	False
219.866	0.1	0.862	220.728	0	PA_without_intermediate	test	ward_and_allport	82	14.0	0.862	to_hand	poldrack-single-stim	s061	False
220.73	0.1	0.366	221.096	0	PA_without_intermediate	test	ward_and_allport	71	14.0	0.366	to_board	poldrack-single-stim	s061	False
221.108	1.0	3.224	221.107	0	PA_without_intermediate	test	ward_and_allport	-1	14.0	n/a	feedback	poldrack-single-stim	s061	False
229.349	3.733	3.733	233.082	1	PA_without_intermediate	test	ward_and_allport	89	15.0	3.733	to_hand	poldrack-single-stim	s061	False
233.085	0.1	0.478	233.563	0	PA_without_intermediate	test	ward_and_allport	82	15.0	0.478	to_board	poldrack-single-stim	s061	False
233.573	0.1	0.762	234.335	0	PA_without_intermediate	test	ward_and_allport	89	15.0	0.762	to_hand	poldrack-single-stim	s061	False
234.337	0.1	0.622	234.959	0	PA_without_intermediate	test	ward_and_allport	82	15.0	0.622	to_board	poldrack-single-stim	s061	False
234.973	0.1	0.898	235.871	0	PA_without_intermediate	test	ward_and_allport	89	15.0	0.898	to_hand	poldrack-single-stim	s061	False
235.873	0.1	0.311	236.184	0	PA_without_intermediate	test	ward_and_allport	71	15.0	0.311	to_board	poldrack-single-stim	s061	False
236.196	1.0	3.36	236.195	0	PA_without_intermediate	test	ward_and_allport	-1	15.0	n/a	feedback	poldrack-single-stim	s061	False
239.57	3.382	3.382	242.952	1	PA_without_intermediate	test	ward_and_allport	82	16.0	3.382	to_hand	poldrack-single-stim	s061	False
242.955	0.1	0.377	243.332	0	PA_without_intermediate	test	ward_and_allport	71	16.0	0.377	to_board	poldrack-single-stim	s061	False
243.345	0.1	1.132	244.477	0	PA_without_intermediate	test	ward_and_allport	82	16.0	1.132	to_hand	poldrack-single-stim	s061	False
244.48	0.1	0.385	244.865	0	PA_without_intermediate	test	ward_and_allport	89	16.0	0.385	to_board	poldrack-single-stim	s061	False
244.877	0.1	0.506	245.383	0	PA_without_intermediate	test	ward_and_allport	82	16.0	0.506	to_hand	poldrack-single-stim	s061	False
245.386	0.1	0.378	245.764	0	PA_without_intermediate	test	ward_and_allport	71	16.0	0.378	to_board	poldrack-single-stim	s061	False
245.776	1.0	2.0	245.775	0	PA_without_intermediate	test	ward_and_allport	-1	16.0	n/a	feedback	poldrack-single-stim	s061	False
247.787	2.279	2.279	250.066	1	PA_without_intermediate	test	ward_and_allport	71	17.0	2.279	to_hand	poldrack-single-stim	s061	False
250.069	0.1	0.426	250.495	0	PA_without_intermediate	test	ward_and_allport	89	17.0	0.426	to_board	poldrack-single-stim	s061	False
250.509	0.1	0.71	251.219	0	PA_without_intermediate	test	ward_and_allport	71	17.0	0.71	to_hand	poldrack-single-stim	s061	False
251.221	0.1	0.473	251.694	0	PA_without_intermediate	test	ward_and_allport	82	17.0	0.473	to_board	poldrack-single-stim	s061	False
251.71	0.1	0.596	252.306	0	PA_without_intermediate	test	ward_and_allport	71	17.0	0.596	to_hand	poldrack-single-stim	s061	False
252.309	0.1	0.302	252.611	0	PA_without_intermediate	test	ward_and_allport	89	17.0	0.302	to_board	poldrack-single-stim	s061	False
252.625	1.0	2.408	252.624	0	PA_without_intermediate	test	ward_and_allport	-1	17.0	n/a	feedback	poldrack-single-stim	s061	False
255.048	2.528	2.528	257.576	1	PA_with_intermediate	test	ward_and_allport	82	18.0	2.528	to_hand	poldrack-single-stim	s061	False
257.577	0.1	0.582	258.159	0	PA_with_intermediate	test	ward_and_allport	89	18.0	0.582	to_board	poldrack-single-stim	s061	False
258.171	0.1	0.793	258.964	0	PA_with_intermediate	test	ward_and_allport	82	18.0	0.793	to_hand	poldrack-single-stim	s061	False
258.966	0.1	0.408	259.374	0	PA_with_intermediate	test	ward_and_allport	71	18.0	0.408	to_board	poldrack-single-stim	s061	False
259.386	0.1	1.366	260.752	0	PA_with_intermediate	test	ward_and_allport	89	18.0	1.366	to_hand	poldrack-single-stim	s061	False
260.754	0.1	0.365	261.119	0	PA_with_intermediate	test	ward_and_allport	71	18.0	0.365	to_board	poldrack-single-stim	s061	False
261.135	1.0	2.136	261.134	0	PA_with_intermediate	test	ward_and_allport	-1	18.0	n/a	feedback	poldrack-single-stim	s061	False
263.286	2.074	2.074	265.36	1	PA_without_intermediate	test	ward_and_allport	89	19.0	2.074	to_hand	poldrack-single-stim	s061	False
265.363	0.1	0.921	266.284	0	PA_without_intermediate	test	ward_and_allport	82	19.0	0.921	to_board	poldrack-single-stim	s061	False
266.298	0.1	1.353	267.651	0	PA_without_intermediate	test	ward_and_allport	89	19.0	1.353	to_hand	poldrack-single-stim	s061	False
267.653	0.1	0.346	267.999	0	PA_without_intermediate	test	ward_and_allport	71	19.0	0.346	to_board	poldrack-single-stim	s061	False
268.015	0.1	0.408	268.423	0	PA_without_intermediate	test	ward_and_allport	89	19.0	0.408	to_hand	poldrack-single-stim	s061	False
268.425	0.1	0.333	268.758	0	PA_without_intermediate	test	ward_and_allport	82	19.0	0.333	to_board	poldrack-single-stim	s061	False
268.776	1.0	5.128	268.775	0	PA_without_intermediate	test	ward_and_allport	-1	19.0	n/a	feedback	poldrack-single-stim	s061	False
273.919	2.493	2.493	276.412	1	PA_without_intermediate	test	ward_and_allport	89	20.0	2.493	to_hand	poldrack-single-stim	s061	False
276.414	0.1	0.79	277.204	0	PA_without_intermediate	test	ward_and_allport	71	20.0	0.79	to_board	poldrack-single-stim	s061	False
277.218	0.1	0.675	277.893	0	PA_without_intermediate	test	ward_and_allport	89	20.0	0.675	to_hand	poldrack-single-stim	s061	False
277.895	0.1	0.692	278.587	0	PA_without_intermediate	test	ward_and_allport	82	20.0	0.692	to_board	poldrack-single-stim	s061	False
278.605	0.1	0.354	278.959	0	PA_without_intermediate	test	ward_and_allport	89	20.0	0.354	to_hand	poldrack-single-stim	s061	False
278.96	0.1	0.292	279.252	0	PA_without_intermediate	test	ward_and_allport	71	20.0	0.292	to_board	poldrack-single-stim	s061	False
279.267	1.0	2.136	279.266	0	PA_without_intermediate	test	ward_and_allport	-1	20.0	n/a	feedback	poldrack-single-stim	s061	False
281.417	2.113	2.113	283.53	1	PA_without_intermediate	test	ward_and_allport	82	21.0	2.113	to_hand	poldrack-single-stim	s061	False
283.532	0.1	0.406	283.938	0	PA_without_intermediate	test	ward_and_allport	89	21.0	0.406	to_board	poldrack-single-stim	s061	False
283.953	0.1	1.674	285.627	0	PA_without_intermediate	test	ward_and_allport	82	21.0	1.674	to_hand	poldrack-single-stim	s061	False
285.629	0.1	0.941	286.57	0	PA_without_intermediate	test	ward_and_allport	89	21.0	0.941	to_board	poldrack-single-stim	s061	False
286.587	0.1	1.197	287.784	0	PA_without_intermediate	test	ward_and_allport	82	21.0	1.197	to_hand	poldrack-single-stim	s061	False
287.786	0.1	0.308	288.094	0	PA_without_intermediate	test	ward_and_allport	71	21.0	0.308	to_board	poldrack-single-stim	s061	False
288.112	1.0	5.264	288.111	0	PA_without_intermediate	test	ward_and_allport	-1	21.0	n/a	feedback	poldrack-single-stim	s061	False
293.393	2.93	2.93	296.323	1	PA_with_intermediate	test	ward_and_allport	82	22.0	2.93	to_hand	poldrack-single-stim	s061	False
296.326	0.1	0.862	297.188	0	PA_with_intermediate	test	ward_and_allport	89	22.0	0.862	to_board	poldrack-single-stim	s061	False
297.203	0.1	0.452	297.655	0	PA_with_intermediate	test	ward_and_allport	82	22.0	0.452	to_hand	poldrack-single-stim	s061	False
297.657	0.1	0.697	298.354	0	PA_with_intermediate	test	ward_and_allport	71	22.0	0.697	to_board	poldrack-single-stim	s061	False
298.369	0.1	0.456	298.825	0	PA_with_intermediate	test	ward_and_allport	89	22.0	0.456	to_hand	poldrack-single-stim	s061	False
298.827	0.1	0.343	299.17	0	PA_with_intermediate	test	ward_and_allport	82	22.0	0.343	to_board	poldrack-single-stim	s061	False
299.188	1.0	4.04	299.187	0	PA_with_intermediate	test	ward_and_allport	-1	22.0	n/a	feedback	poldrack-single-stim	s061	False
303.244	3.213	3.213	306.457	1	PA_with_intermediate	test	ward_and_allport	89	23.0	3.213	to_hand	poldrack-single-stim	s061	False
306.459	0.1	0.391	306.85	0	PA_with_intermediate	test	ward_and_allport	71	23.0	0.391	to_board	poldrack-single-stim	s061	False
306.865	0.1	0.407	307.272	0	PA_with_intermediate	test	ward_and_allport	89	23.0	0.407	to_hand	poldrack-single-stim	s061	False
307.273	0.1	0.425	307.698	0	PA_with_intermediate	test	ward_and_allport	82	23.0	0.425	to_board	poldrack-single-stim	s061	False
307.716	0.1	0.403	308.119	0	PA_with_intermediate	test	ward_and_allport	71	23.0	0.403	to_hand	poldrack-single-stim	s061	False
308.12	0.1	0.251	308.371	0	PA_with_intermediate	test	ward_and_allport	89	23.0	0.251	to_board	poldrack-single-stim	s061	False
308.388	1.0	2.136	308.387	0	PA_with_intermediate	test	ward_and_allport	-1	23.0	n/a	feedback	poldrack-single-stim	s061	False
310.541	2.435	2.435	312.976	1	PA_with_intermediate	test	ward_and_allport	89	24.0	2.435	to_hand	poldrack-single-stim	s061	False
312.979	0.1	0.446	313.425	0	PA_with_intermediate	test	ward_and_allport	71	24.0	0.446	to_board	poldrack-single-stim	s061	False
313.442	0.1	0.359	313.801	0	PA_with_intermediate	test	ward_and_allport	89	24.0	0.359	to_hand	poldrack-single-stim	s061	False
313.803	0.1	0.449	314.252	0	PA_with_intermediate	test	ward_and_allport	82	24.0	0.449	to_board	poldrack-single-stim	s061	False
314.271	0.1	0.663	314.934	0	PA_with_intermediate	test	ward_and_allport	71	24.0	0.663	to_hand	poldrack-single-stim	s061	False
314.935	0.1	0.346	315.281	0	PA_with_intermediate	test	ward_and_allport	82	24.0	0.346	to_board	poldrack-single-stim	s061	False
315.304	1.0	2.408	315.303	0	PA_with_intermediate	test	ward_and_allport	-1	24.0	n/a	feedback	poldrack-single-stim	s061	False
317.732	2.216	2.216	319.948	1	PA_without_intermediate	test	ward_and_allport	89	25.0	2.216	to_hand	poldrack-single-stim	s061	False
319.949	0.1	0.375	320.324	0	PA_without_intermediate	test	ward_and_allport	82	25.0	0.375	to_board	poldrack-single-stim	s061	False
320.342	0.1	0.376	320.718	0	PA_without_intermediate	test	ward_and_allport	89	25.0	0.376	to_hand	poldrack-single-stim	s061	False
320.719	0.1	0.419	321.138	0	PA_without_intermediate	test	ward_and_allport	82	25.0	0.419	to_board	poldrack-single-stim	s061	False
321.154	0.1	0.689	321.843	0	PA_without_intermediate	test	ward_and_allport	89	25.0	0.689	to_hand	poldrack-single-stim	s061	False
321.845	0.1	0.3	322.145	0	PA_without_intermediate	test	ward_and_allport	71	25.0	0.3	to_board	poldrack-single-stim	s061	False
322.163	1.0	2.68	322.162	0	PA_without_intermediate	test	ward_and_allport	-1	25.0	n/a	feedback	poldrack-single-stim	s061	False
324.861	3.244	3.244	328.105	1	PA_with_intermediate	test	ward_and_allport	71	26.0	3.244	to_hand	poldrack-single-stim	s061	False
328.107	0.1	0.363	328.47	0	PA_with_intermediate	test	ward_and_allport	82	26.0	0.363	to_board	poldrack-single-stim	s061	False
328.488	0.1	0.312	328.8	0	PA_with_intermediate	test	ward_and_allport	71	26.0	0.312	to_hand	poldrack-single-stim	s061	False
328.803	0.1	0.319	329.122	0	PA_with_intermediate	test	ward_and_allport	89	26.0	0.319	to_board	poldrack-single-stim	s061	False
329.142	0.1	1.052	330.194	0	PA_with_intermediate	test	ward_and_allport	82	26.0	1.052	to_hand	poldrack-single-stim	s061	False
330.196	0.1	0.34	330.536	0	PA_with_intermediate	test	ward_and_allport	71	26.0	0.34	to_board	poldrack-single-stim	s061	False
330.554	1.0	4.72	330.553	0	PA_with_intermediate	test	ward_and_allport	-1	26.0	n/a	feedback	poldrack-single-stim	s061	False
335.291	3.162	3.162	338.453	1	PA_without_intermediate	test	ward_and_allport	82	27.0	3.162	to_hand	poldrack-single-stim	s061	False
338.456	0.1	0.57	339.026	0	PA_without_intermediate	test	ward_and_allport	71	27.0	0.57	to_board	poldrack-single-stim	s061	False
339.045	0.1	0.415	339.46	0	PA_without_intermediate	test	ward_and_allport	82	27.0	0.415	to_hand	poldrack-single-stim	s061	False
339.462	0.1	0.623	340.085	0	PA_without_intermediate	test	ward_and_allport	71	27.0	0.623	to_board	poldrack-single-stim	s061	False
340.106	0.1	0.323	340.429	0	PA_without_intermediate	test	ward_and_allport	82	27.0	0.323	to_hand	poldrack-single-stim	s061	False
340.431	0.1	0.261	340.692	0	PA_without_intermediate	test	ward_and_allport	89	27.0	0.261	to_board	poldrack-single-stim	s061	False
340.714	1.0	3.224	340.713	0	PA_without_intermediate	test	ward_and_allport	-1	27.0	n/a	feedback	poldrack-single-stim	s061	False
343.958	1.901	1.901	345.859	1	PA_without_intermediate	test	ward_and_allport	71	28.0	1.901	to_hand	poldrack-single-stim	s061	False
345.861	0.1	0.439	346.3	0	PA_without_intermediate	test	ward_and_allport	89	28.0	0.439	to_board	poldrack-single-stim	s061	False
346.319	0.1	0.429	346.748	0	PA_without_intermediate	test	ward_and_allport	71	28.0	0.429	to_hand	poldrack-single-stim	s061	False
346.751	0.1	0.354	347.105	0	PA_without_intermediate	test	ward_and_allport	89	28.0	0.354	to_board	poldrack-single-stim	s061	False
347.124	0.1	0.324	347.448	0	PA_without_intermediate	test	ward_and_allport	71	28.0	0.324	to_hand	poldrack-single-stim	s061	False
347.45	0.1	0.268	347.718	0	PA_without_intermediate	test	ward_and_allport	82	28.0	0.268	to_board	poldrack-single-stim	s061	False
347.739	1.0	2.272	347.738	0	PA_without_intermediate	test	ward_and_allport	-1	28.0	n/a	feedback	poldrack-single-stim	s061	False
350.034	2.191	2.191	352.225	1	PA_with_intermediate	test	ward_and_allport	71	29.0	2.191	to_hand	poldrack-single-stim	s061	False
352.227	0.1	0.394	352.621	0	PA_with_intermediate	test	ward_and_allport	89	29.0	0.394	to_board	poldrack-single-stim	s061	False
352.645	0.1	0.47	353.115	0	PA_with_intermediate	test	ward_and_allport	71	29.0	0.47	to_hand	poldrack-single-stim	s061	False
353.117	0.1	0.412	353.529	0	PA_with_intermediate	test	ward_and_allport	82	29.0	0.412	to_board	poldrack-single-stim	s061	False
353.547	0.1	0.743	354.29	0	PA_with_intermediate	test	ward_and_allport	89	29.0	0.743	to_hand	poldrack-single-stim	s061	False
354.291	0.1	0.259	354.55	0	PA_with_intermediate	test	ward_and_allport	71	29.0	0.259	to_board	poldrack-single-stim	s061	False
354.57	1.0	3.632	354.569	0	PA_with_intermediate	test	ward_and_allport	-1	29.0	n/a	feedback	poldrack-single-stim	s061	False
363.218	1.72	1.72	364.938	1	PA_without_intermediate	test	ward_and_allport	71	30.0	1.72	to_hand	poldrack-single-stim	s061	False
364.941	0.1	0.406	365.347	0	PA_without_intermediate	test	ward_and_allport	89	30.0	0.406	to_board	poldrack-single-stim	s061	False
365.369	0.1	0.346	365.715	0	PA_without_intermediate	test	ward_and_allport	71	30.0	0.346	to_hand	poldrack-single-stim	s061	False
365.717	0.1	0.312	366.029	0	PA_without_intermediate	test	ward_and_allport	89	30.0	0.312	to_board	poldrack-single-stim	s061	False
366.049	0.1	0.308	366.357	0	PA_without_intermediate	test	ward_and_allport	71	30.0	0.308	to_hand	poldrack-single-stim	s061	False
366.359	0.1	0.3	366.659	0	PA_without_intermediate	test	ward_and_allport	82	30.0	0.3	to_board	poldrack-single-stim	s061	False
366.678	1.0	2.408	366.677	0	PA_without_intermediate	test	ward_and_allport	-1	30.0	n/a	feedback	poldrack-single-stim	s061	False
369.11	2.081	2.081	371.191	1	PA_without_intermediate	test	ward_and_allport	89	31.0	2.081	to_hand	poldrack-single-stim	s061	False
371.193	0.1	0.407	371.6	0	PA_without_intermediate	test	ward_and_allport	71	31.0	0.407	to_board	poldrack-single-stim	s061	False
371.615	0.1	0.551	372.166	0	PA_without_intermediate	test	ward_and_allport	89	31.0	0.551	to_hand	poldrack-single-stim	s061	False
372.169	0.1	0.329	372.498	0	PA_without_intermediate	test	ward_and_allport	82	31.0	0.329	to_board	poldrack-single-stim	s061	False
372.518	0.1	0.287	372.805	0	PA_without_intermediate	test	ward_and_allport	89	31.0	0.287	to_hand	poldrack-single-stim	s061	False
372.808	0.1	0.257	373.065	0	PA_without_intermediate	test	ward_and_allport	71	31.0	0.257	to_board	poldrack-single-stim	s061	False
373.087	1.0	2.0	373.086	0	PA_without_intermediate	test	ward_and_allport	-1	31.0	n/a	feedback	poldrack-single-stim	s061	False
375.108	2.51	2.51	377.618	1	PA_with_intermediate	test	ward_and_allport	71	32.0	2.51	to_hand	poldrack-single-stim	s061	False
377.62	0.1	0.35	377.97	0	PA_with_intermediate	test	ward_and_allport	82	32.0	0.35	to_board	poldrack-single-stim	s061	False
377.991	0.1	0.297	378.288	0	PA_with_intermediate	test	ward_and_allport	71	32.0	0.297	to_hand	poldrack-single-stim	s061	False
378.289	0.1	0.314	378.603	0	PA_with_intermediate	test	ward_and_allport	89	32.0	0.314	to_board	poldrack-single-stim	s061	False
378.621	0.1	0.345	378.966	0	PA_with_intermediate	test	ward_and_allport	82	32.0	0.345	to_hand	poldrack-single-stim	s061	False
378.968	0.1	0.32	379.288	0	PA_with_intermediate	test	ward_and_allport	89	32.0	0.32	to_board	poldrack-single-stim	s061	False
379.307	1.0	2.0	379.306	0	PA_with_intermediate	test	ward_and_allport	-1	32.0	n/a	feedback	poldrack-single-stim	s061	False
381.341	3.514	3.514	384.855	1	PA_with_intermediate	test	ward_and_allport	82	33.0	3.514	to_hand	poldrack-single-stim	s061	False
384.857	0.1	0.305	385.162	0	PA_with_intermediate	test	ward_and_allport	89	33.0	0.305	to_board	poldrack-single-stim	s061	False
385.176	0.1	0.732	385.908	0	PA_with_intermediate	test	ward_and_allport	82	33.0	0.732	to_hand	poldrack-single-stim	s061	False
385.909	0.1	1.587	387.496	0	PA_with_intermediate	test	ward_and_allport	71	33.0	1.587	to_board	poldrack-single-stim	s061	False
387.517	0.1	0.575	388.092	0	PA_with_intermediate	test	ward_and_allport	89	33.0	0.575	to_hand	poldrack-single-stim	s061	False
388.094	0.1	1.212	389.306	0	PA_with_intermediate	test	ward_and_allport	82	33.0	1.212	to_board	poldrack-single-stim	s061	False
389.33	0.1	0.953	390.283	0	PA_with_intermediate	test	ward_and_allport	71	33.0	0.953	to_hand	poldrack-single-stim	s061	False
390.285	0.1	0.296	390.581	0	PA_with_intermediate	test	ward_and_allport	89	33.0	0.296	to_board	poldrack-single-stim	s061	False
390.603	1.0	2.0	390.602	0	PA_with_intermediate	test	ward_and_allport	-1	33.0	n/a	feedback	poldrack-single-stim	s061	False
392.625	3.028	3.028	395.653	1	PA_with_intermediate	test	ward_and_allport	82	34.0	3.028	to_hand	poldrack-single-stim	s061	False
395.654	0.1	0.696	396.35	0	PA_with_intermediate	test	ward_and_allport	71	34.0	0.696	to_board	poldrack-single-stim	s061	False
396.366	0.1	1.033	397.399	0	PA_with_intermediate	test	ward_and_allport	82	34.0	1.033	to_hand	poldrack-single-stim	s061	False
397.401	0.1	0.485	397.886	0	PA_with_intermediate	test	ward_and_allport	89	34.0	0.485	to_board	poldrack-single-stim	s061	False
397.907	0.1	1.13	399.037	0	PA_with_intermediate	test	ward_and_allport	71	34.0	1.13	to_hand	poldrack-single-stim	s061	False
399.039	0.1	0.317	399.356	0	PA_with_intermediate	test	ward_and_allport	89	34.0	0.317	to_board	poldrack-single-stim	s061	False
399.381	1.0	2.408	399.38	0	PA_with_intermediate	test	ward_and_allport	-1	34.0	n/a	feedback	poldrack-single-stim	s061	False
401.813	2.115	2.115	403.928	1	PA_without_intermediate	test	ward_and_allport	71	35.0	2.115	to_hand	poldrack-single-stim	s061	False
403.93	0.1	0.575	404.505	0	PA_without_intermediate	test	ward_and_allport	82	35.0	0.575	to_board	poldrack-single-stim	s061	False
404.524	0.1	0.753	405.277	0	PA_without_intermediate	test	ward_and_allport	71	35.0	0.753	to_hand	poldrack-single-stim	s061	False
405.28	0.1	0.747	406.027	0	PA_without_intermediate	test	ward_and_allport	82	35.0	0.747	to_board	poldrack-single-stim	s061	False
406.051	0.1	0.369	406.42	0	PA_without_intermediate	test	ward_and_allport	71	35.0	0.369	to_hand	poldrack-single-stim	s061	False
406.423	0.1	0.412	406.835	0	PA_without_intermediate	test	ward_and_allport	89	35.0	0.412	to_board	poldrack-single-stim	s061	False
406.859	1.0	2.816	406.858	0	PA_without_intermediate	test	ward_and_allport	-1	35.0	n/a	feedback	poldrack-single-stim	s061	False
409.697	2.794	2.794	412.491	1	PA_with_intermediate	test	ward_and_allport	82	36.0	2.794	to_hand	poldrack-single-stim	s061	False
412.494	0.1	0.404	412.898	0	PA_with_intermediate	test	ward_and_allport	89	36.0	0.404	to_board	poldrack-single-stim	s061	False
412.917	0.1	0.862	413.779	0	PA_with_intermediate	test	ward_and_allport	82	36.0	0.862	to_hand	poldrack-single-stim	s061	False
413.782	0.1	0.465	414.247	0	PA_with_intermediate	test	ward_and_allport	71	36.0	0.465	to_board	poldrack-single-stim	s061	False
414.267	0.1	0.388	414.655	0	PA_with_intermediate	test	ward_and_allport	89	36.0	0.388	to_hand	poldrack-single-stim	s061	False
414.657	0.1	0.321	414.978	0	PA_with_intermediate	test	ward_and_allport	71	36.0	0.321	to_board	poldrack-single-stim	s061	False
415.002	1.0	4.176	415.001	0	PA_with_intermediate	test	ward_and_allport	-1	36.0	n/a	feedback	poldrack-single-stim	s061	False
419.205	2.717	2.717	421.922	1	PA_with_intermediate	test	ward_and_allport	89	37.0	2.717	to_hand	poldrack-single-stim	s061	False
421.924	0.1	1.234	423.158	0	PA_with_intermediate	test	ward_and_allport	82	37.0	1.234	to_board	poldrack-single-stim	s061	False
423.182	0.1	0.735	423.917	0	PA_with_intermediate	test	ward_and_allport	89	37.0	0.735	to_hand	poldrack-single-stim	s061	False
423.92	0.1	0.39	424.31	0	PA_with_intermediate	test	ward_and_allport	71	37.0	0.39	to_board	poldrack-single-stim	s061	False
424.338	0.1	0.426	424.764	0	PA_with_intermediate	test	ward_and_allport	82	37.0	0.426	to_hand	poldrack-single-stim	s061	False
424.766	0.1	0.313	425.079	0	PA_with_intermediate	test	ward_and_allport	89	37.0	0.313	to_board	poldrack-single-stim	s061	False
425.102	1.0	3.36	425.101	0	PA_with_intermediate	test	ward_and_allport	-1	37.0	n/a	feedback	poldrack-single-stim	s061	False
428.485	2.657	2.657	431.142	1	PA_with_intermediate	test	ward_and_allport	71	38.0	2.657	to_hand	poldrack-single-stim	s061	False
431.144	0.1	0.838	431.982	0	PA_with_intermediate	test	ward_and_allport	89	38.0	0.838	to_board	poldrack-single-stim	s061	False
432.001	0.1	0.854	432.855	0	PA_with_intermediate	test	ward_and_allport	71	38.0	0.854	to_hand	poldrack-single-stim	s061	False
432.857	0.1	0.398	433.255	0	PA_with_intermediate	test	ward_and_allport	82	38.0	0.398	to_board	poldrack-single-stim	s061	False
433.277	0.1	0.357	433.634	0	PA_with_intermediate	test	ward_and_allport	89	38.0	0.357	to_hand	poldrack-single-stim	s061	False
433.635	0.1	0.324	433.959	0	PA_with_intermediate	test	ward_and_allport	82	38.0	0.324	to_board	poldrack-single-stim	s061	False
433.984	1.0	2.0	433.983	0	PA_with_intermediate	test	ward_and_allport	-1	38.0	n/a	feedback	poldrack-single-stim	s061	False
436.004	1.906	1.906	437.91	1	PA_without_intermediate	test	ward_and_allport	89	39.0	1.906	to_hand	poldrack-single-stim	s061	False
437.912	0.1	0.492	438.404	0	PA_without_intermediate	test	ward_and_allport	82	39.0	0.492	to_board	poldrack-single-stim	s061	False
438.422	0.1	1.036	439.458	0	PA_without_intermediate	test	ward_and_allport	89	39.0	1.036	to_hand	poldrack-single-stim	s061	False
439.46	0.1	0.45	439.91	0	PA_without_intermediate	test	ward_and_allport	71	39.0	0.45	to_board	poldrack-single-stim	s061	False
439.93	0.1	0.434	440.364	0	PA_without_intermediate	test	ward_and_allport	89	39.0	0.434	to_hand	poldrack-single-stim	s061	False
440.366	0.1	0.333	440.699	0	PA_without_intermediate	test	ward_and_allport	82	39.0	0.333	to_board	poldrack-single-stim	s061	False
440.726	1.0	2.408	440.725	0	PA_without_intermediate	test	ward_and_allport	-1	39.0	n/a	feedback	poldrack-single-stim	s061	False
443.16	2.278	2.278	445.438	1	PA_with_intermediate	test	ward_and_allport	89	40.0	2.278	to_hand	poldrack-single-stim	s061	False
445.441	0.1	0.412	445.853	0	PA_with_intermediate	test	ward_and_allport	82	40.0	0.412	to_board	poldrack-single-stim	s061	False
445.873	0.1	0.324	446.197	0	PA_with_intermediate	test	ward_and_allport	89	40.0	0.324	to_hand	poldrack-single-stim	s061	False
446.2	0.1	0.361	446.561	0	PA_with_intermediate	test	ward_and_allport	71	40.0	0.361	to_board	poldrack-single-stim	s061	False
446.584	0.1	0.801	447.385	0	PA_with_intermediate	test	ward_and_allport	82	40.0	0.801	to_hand	poldrack-single-stim	s061	False
447.387	0.1	0.661	448.048	0	PA_with_intermediate	test	ward_and_allport	71	40.0	0.661	to_board	poldrack-single-stim	s061	False
448.068	1.0	2.816	448.067	0	PA_with_intermediate	test	ward_and_allport	-1	40.0	n/a	feedback	poldrack-single-stim	s061	False
450.904	2.059	2.059	452.963	1	PA_without_intermediate	test	ward_and_allport	82	41.0	2.059	to_hand	poldrack-single-stim	s061	False
452.966	0.1	0.717	453.683	0	PA_without_intermediate	test	ward_and_allport	71	41.0	0.717	to_board	poldrack-single-stim	s061	False
453.712	0.1	0.419	454.131	0	PA_without_intermediate	test	ward_and_allport	82	41.0	0.419	to_hand	poldrack-single-stim	s061	False
454.134	0.1	0.503	454.637	0	PA_without_intermediate	test	ward_and_allport	71	41.0	0.503	to_board	poldrack-single-stim	s061	False
454.665	0.1	0.364	455.029	0	PA_without_intermediate	test	ward_and_allport	82	41.0	0.364	to_hand	poldrack-single-stim	s061	False
455.03	0.1	0.294	455.324	0	PA_without_intermediate	test	ward_and_allport	89	41.0	0.294	to_board	poldrack-single-stim	s061	False
455.35	1.0	3.088	455.349	0	PA_without_intermediate	test	ward_and_allport	-1	41.0	n/a	feedback	poldrack-single-stim	s061	False
458.454	1.692	1.692	460.146	1	PA_without_intermediate	test	ward_and_allport	82	42.0	1.692	to_hand	poldrack-single-stim	s061	False
460.148	0.1	0.394	460.542	0	PA_without_intermediate	test	ward_and_allport	89	42.0	0.394	to_board	poldrack-single-stim	s061	False
460.564	0.1	0.423	460.987	0	PA_without_intermediate	test	ward_and_allport	82	42.0	0.423	to_hand	poldrack-single-stim	s061	False
460.989	0.1	0.335	461.324	0	PA_without_intermediate	test	ward_and_allport	89	42.0	0.335	to_board	poldrack-single-stim	s061	False
461.347	0.1	0.476	461.823	0	PA_without_intermediate	test	ward_and_allport	82	42.0	0.476	to_hand	poldrack-single-stim	s061	False
461.825	0.1	0.275	462.1	0	PA_without_intermediate	test	ward_and_allport	71	42.0	0.275	to_board	poldrack-single-stim	s061	False
462.127	1.0	2.136	462.126	0	PA_without_intermediate	test	ward_and_allport	-1	42.0	n/a	feedback	poldrack-single-stim	s061	False
464.283	1.658	1.658	465.941	1	PA_without_intermediate	test	ward_and_allport	71	43.0	1.658	to_hand	poldrack-single-stim	s061	False
465.943	0.1	0.473	466.416	0	PA_without_intermediate	test	ward_and_allport	89	43.0	0.473	to_board	poldrack-single-stim	s061	False
466.44	0.1	0.439	466.879	0	PA_without_intermediate	test	ward_and_allport	71	43.0	0.439	to_hand	poldrack-single-stim	s061	False
466.88	0.1	0.365	467.245	0	PA_without_intermediate	test	ward_and_allport	82	43.0	0.365	to_board	poldrack-single-stim	s061	False
467.266	0.1	0.404	467.67	0	PA_without_intermediate	test	ward_and_allport	71	43.0	0.404	to_hand	poldrack-single-stim	s061	False
467.672	0.1	0.286	467.958	0	PA_without_intermediate	test	ward_and_allport	89	43.0	0.286	to_board	poldrack-single-stim	s061	False
467.984	1.0	7.168	467.983	0	PA_without_intermediate	test	ward_and_allport	-1	43.0	n/a	feedback	poldrack-single-stim	s061	False
475.173	1.762	1.762	476.935	1	PA_without_intermediate	test	ward_and_allport	82	44.0	1.762	to_hand	poldrack-single-stim	s061	False
476.937	0.1	0.42	477.357	0	PA_without_intermediate	test	ward_and_allport	89	44.0	0.42	to_board	poldrack-single-stim	s061	False
477.378	0.1	0.588	477.966	0	PA_without_intermediate	test	ward_and_allport	82	44.0	0.588	to_hand	poldrack-single-stim	s061	False
477.967	0.1	0.369	478.336	0	PA_without_intermediate	test	ward_and_allport	71	44.0	0.369	to_board	poldrack-single-stim	s061	False
478.362	0.1	0.354	478.716	0	PA_without_intermediate	test	ward_and_allport	82	44.0	0.354	to_hand	poldrack-single-stim	s061	False
478.72	0.1	0.259	478.979	0	PA_without_intermediate	test	ward_and_allport	89	44.0	0.259	to_board	poldrack-single-stim	s061	False
479.016	1.0	2.816	479.015	0	PA_without_intermediate	test	ward_and_allport	-1	44.0	n/a	feedback	poldrack-single-stim	s061	False
486.865	2.798	2.798	489.663	1	PA_with_intermediate	test	ward_and_allport	89	45.0	2.798	to_hand	poldrack-single-stim	s061	False
489.665	0.1	0.419	490.084	0	PA_with_intermediate	test	ward_and_allport	82	45.0	0.419	to_board	poldrack-single-stim	s061	False
490.115	0.1	1.103	491.218	0	PA_with_intermediate	test	ward_and_allport	89	45.0	1.103	to_hand	poldrack-single-stim	s061	False
491.221	0.1	0.418	491.639	0	PA_with_intermediate	test	ward_and_allport	82	45.0	0.418	to_board	poldrack-single-stim	s061	False
491.667	0.1	2.157	493.824	0	PA_with_intermediate	test	ward_and_allport	82	45.0	2.157	to_hand	poldrack-single-stim	s061	False
493.825	0.1	0.408	494.233	0	PA_with_intermediate	test	ward_and_allport	71	45.0	0.408	to_board	poldrack-single-stim	s061	False
494.26	0.1	0.935	495.195	0	PA_with_intermediate	test	ward_and_allport	82	45.0	0.935	to_hand	poldrack-single-stim	s061	False
495.198	0.1	0.544	495.742	0	PA_with_intermediate	test	ward_and_allport	89	45.0	0.544	to_board	poldrack-single-stim	s061	False
495.766	0.1	1.912	497.678	0	PA_with_intermediate	test	ward_and_allport	71	45.0	1.912	to_hand	poldrack-single-stim	s061	False
497.68	0.1	0.358	498.038	0	PA_with_intermediate	test	ward_and_allport	82	45.0	0.358	to_board	poldrack-single-stim	s061	False
498.057	0.1	0.457	498.514	0	PA_with_intermediate	test	ward_and_allport	89	45.0	0.457	to_hand	poldrack-single-stim	s061	False
498.516	0.1	0.357	498.873	0	PA_with_intermediate	test	ward_and_allport	82	45.0	0.357	to_board	poldrack-single-stim	s061	False
498.904	1.0	2.952	498.903	0	PA_with_intermediate	test	ward_and_allport	-1	45.0	n/a	feedback	poldrack-single-stim	s061	False
501.887	1.918	1.918	503.805	1	PA_with_intermediate	test	ward_and_allport	71	46.0	1.918	to_hand	poldrack-single-stim	s061	False
503.808	0.1	0.376	504.184	0	PA_with_intermediate	test	ward_and_allport	82	46.0	0.376	to_board	poldrack-single-stim	s061	False
504.214	0.1	0.335	504.549	0	PA_with_intermediate	test	ward_and_allport	71	46.0	0.335	to_hand	poldrack-single-stim	s061	False
504.551	0.1	0.486	505.037	0	PA_with_intermediate	test	ward_and_allport	89	46.0	0.486	to_board	poldrack-single-stim	s061	False
505.062	0.1	1.961	507.023	0	PA_with_intermediate	test	ward_and_allport	82	46.0	1.961	to_hand	poldrack-single-stim	s061	False
507.025	0.1	0.334	507.359	0	PA_with_intermediate	test	ward_and_allport	89	46.0	0.334	to_board	poldrack-single-stim	s061	False
507.386	1.0	2.136	507.385	0	PA_with_intermediate	test	ward_and_allport	-1	46.0	n/a	feedback	poldrack-single-stim	s061	False
509.546	2.099	2.099	511.645	1	PA_without_intermediate	test	ward_and_allport	89	47.0	2.099	to_hand	poldrack-single-stim	s061	False
511.647	0.1	0.697	512.344	0	PA_without_intermediate	test	ward_and_allport	71	47.0	0.697	to_board	poldrack-single-stim	s061	False
512.368	0.1	0.402	512.77	0	PA_without_intermediate	test	ward_and_allport	89	47.0	0.402	to_hand	poldrack-single-stim	s061	False
512.773	0.1	0.475	513.248	0	PA_without_intermediate	test	ward_and_allport	71	47.0	0.475	to_board	poldrack-single-stim	s061	False
513.273	0.1	0.369	513.642	0	PA_without_intermediate	test	ward_and_allport	89	47.0	0.369	to_hand	poldrack-single-stim	s061	False
513.644	0.1	0.416	514.06	0	PA_without_intermediate	test	ward_and_allport	82	47.0	0.416	to_board	poldrack-single-stim	s061	False
514.085	1.0	2.68	514.084	0	PA_without_intermediate	test	ward_and_allport	-1	47.0	n/a	feedback	poldrack-single-stim	s061	False
