onset	duration	movement_onset	block_duration	condition	correct	correct_response	experiment_exp_id	key_press	response_time	trial_id	trial_type	worker_id	junk
0.276	1.5	1.785	2.316	AY	1.0	71.0	dot_pattern_expectancy	71.0	0.509	probe	AY	s568	False
5.101	1.5	6.582	1.636	AY	1.0	71.0	dot_pattern_expectancy	71.0	0.481	probe	AY	s568	False
9.245	1.5	10.693	1.908	BX	0.0	71.0	dot_pattern_expectancy	89.0	0.448	probe	BX	s568	False
13.661	1.5	15.24	3.54	AX	1.0	89.0	dot_pattern_expectancy	89.0	0.579	probe	AX	s568	False
19.709	1.5	21.719	1.636	BX	0.0	71.0	dot_pattern_expectancy	89.0	1.01	probe	BX	s568	False
23.85	1.5	25.336	1.5	BY	1.0	71.0	dot_pattern_expectancy	71.0	0.486	probe	BY	s568	False
27.859	1.5	29.435	1.5	AX	1.0	89.0	dot_pattern_expectancy	89.0	0.576	probe	AX	s568	False
31.867	1.5	33.492	1.772	AX	1.0	89.0	dot_pattern_expectancy	89.0	0.625	probe	AX	s568	False
36.147	1.5	37.464	2.452	BY	1.0	71.0	dot_pattern_expectancy	71.0	0.317	probe	BY	s568	False
41.107	1.5	42.688	1.908	AX	1.0	89.0	dot_pattern_expectancy	89.0	0.581	probe	AX	s568	False
45.523	1.5	46.905	1.636	BX	1.0	71.0	dot_pattern_expectancy	71.0	0.382	probe	BX	s568	False
49.663	1.5	51.16	1.5	AX	1.0	89.0	dot_pattern_expectancy	89.0	0.497	probe	AX	s568	False
53.673	1.5	55.507	1.636	AX	1.0	89.0	dot_pattern_expectancy	89.0	0.834	probe	AX	s568	False
57.817	1.5	59.74	1.636	AX	1.0	89.0	dot_pattern_expectancy	89.0	0.923	probe	AX	s568	False
61.961	1.5	63.775	2.452	BY	1.0	71.0	dot_pattern_expectancy	71.0	0.814	probe	BY	s568	False
66.921	1.5	68.643	1.5	AX	1.0	89.0	dot_pattern_expectancy	89.0	0.722	probe	AX	s568	False
70.931	1.5	72.37	1.5	BY	1.0	71.0	dot_pattern_expectancy	71.0	0.439	probe	BY	s568	False
74.943	1.5	76.509	1.636	AX	1.0	89.0	dot_pattern_expectancy	89.0	0.566	probe	AX	s568	False
79.087	1.5	81.269	1.636	AX	0.0	89.0	dot_pattern_expectancy	71.0	1.182	probe	AX	s568	False
83.231	1.5	84.997	1.636	AY	1.0	71.0	dot_pattern_expectancy	71.0	0.766	probe	AY	s568	False
87.378	1.5	89.32	1.5	AX	1.0	89.0	dot_pattern_expectancy	89.0	0.942	probe	AX	s568	False
91.391	1.5	92.39	1.5	AX	0.0	89.0	dot_pattern_expectancy	-1.0	n/a	probe	AX	s568	False
95.401	1.5	96.842	1.772	AX	1.0	89.0	dot_pattern_expectancy	89.0	0.441	probe	AX	s568	False
99.685	1.5	101.243	2.18	AX	1.0	89.0	dot_pattern_expectancy	89.0	0.558	probe	AX	s568	False
104.376	1.5	105.877	1.772	BX	1.0	71.0	dot_pattern_expectancy	71.0	0.501	probe	BX	s568	False
108.653	1.5	109.652	1.5	BY	0.0	71.0	dot_pattern_expectancy	-1.0	n/a	probe	BY	s568	False
112.66	1.5	114.283	1.5	AX	1.0	89.0	dot_pattern_expectancy	89.0	0.623	probe	AX	s568	False
116.672	1.5	118.138	1.636	AX	1.0	89.0	dot_pattern_expectancy	89.0	0.466	probe	AX	s568	False
120.816	1.5	122.368	2.18	AY	0.0	71.0	dot_pattern_expectancy	89.0	0.552	probe	AY	s568	False
125.502	1.5	127.293	2.316	AY	1.0	71.0	dot_pattern_expectancy	71.0	0.791	probe	AY	s568	False
130.326	1.5	131.62	1.636	BX	1.0	71.0	dot_pattern_expectancy	71.0	0.294	probe	BX	s568	False
134.47	1.5	136.009	2.18	BX	1.0	71.0	dot_pattern_expectancy	71.0	0.539	probe	BX	s568	False
139.16	1.5	140.661	2.044	AY	1.0	71.0	dot_pattern_expectancy	71.0	0.501	probe	AY	s568	False
143.716	1.5	145.929	1.772	AX	1.0	89.0	dot_pattern_expectancy	89.0	1.213	probe	AX	s568	False
148.001	1.5	149.94	1.5	AX	1.0	89.0	dot_pattern_expectancy	89.0	0.939	probe	AX	s568	False
152.007	1.5	154.545	2.18	AX	0.0	89.0	dot_pattern_expectancy	71.0	1.538	probe	AX	s568	False
156.695	1.5	158.274	2.452	AY	1.0	71.0	dot_pattern_expectancy	71.0	0.579	probe	AY	s568	False
161.655	1.5	163.33	1.636	AX	1.0	89.0	dot_pattern_expectancy	89.0	0.675	probe	AX	s568	False
165.799	1.5	167.311	1.908	AX	1.0	89.0	dot_pattern_expectancy	89.0	0.512	probe	AX	s568	False
180.73	1.5	182.144	1.772	AX	1.0	89.0	dot_pattern_expectancy	89.0	0.414	probe	AX	s568	False
185.009	1.5	186.402	1.5	AX	1.0	89.0	dot_pattern_expectancy	89.0	0.393	probe	AX	s568	False
189.021	1.5	190.582	2.452	AY	1.0	71.0	dot_pattern_expectancy	71.0	0.561	probe	AY	s568	False
193.984	1.5	195.522	1.772	AY	1.0	71.0	dot_pattern_expectancy	71.0	0.538	probe	AY	s568	False
198.264	1.5	200.213	1.908	AX	1.0	89.0	dot_pattern_expectancy	89.0	0.949	probe	AX	s568	False
202.68	1.5	204.084	1.908	AX	1.0	89.0	dot_pattern_expectancy	89.0	0.404	probe	AX	s568	False
207.099	1.5	208.604	2.588	AX	1.0	89.0	dot_pattern_expectancy	89.0	0.505	probe	AX	s568	False
212.198	1.5	213.901	1.5	AY	1.0	71.0	dot_pattern_expectancy	71.0	0.703	probe	AY	s568	False
216.203	1.5	217.804	1.5	BY	1.0	71.0	dot_pattern_expectancy	71.0	0.601	probe	BY	s568	False
220.214	1.5	222.131	1.5	BY	1.0	71.0	dot_pattern_expectancy	71.0	0.917	probe	BY	s568	False
224.222	1.5	225.93	1.636	AX	1.0	89.0	dot_pattern_expectancy	89.0	0.708	probe	AX	s568	False
228.364	1.5	229.725	2.044	BX	1.0	71.0	dot_pattern_expectancy	71.0	0.361	probe	BX	s568	False
232.919	1.5	234.863	1.772	AX	1.0	89.0	dot_pattern_expectancy	89.0	0.944	probe	AX	s568	False
237.196	1.5	238.762	2.588	BX	1.0	71.0	dot_pattern_expectancy	71.0	0.566	probe	BX	s568	False
242.289	1.5	244.041	1.5	AY	1.0	71.0	dot_pattern_expectancy	71.0	0.752	probe	AY	s568	False
246.298	1.5	247.297	2.452	AX	0.0	89.0	dot_pattern_expectancy	-1.0	n/a	probe	AX	s568	False
251.258	1.5	252.892	1.636	BY	1.0	71.0	dot_pattern_expectancy	71.0	0.634	probe	BY	s568	False
255.402	1.5	257.386	1.636	AX	1.0	89.0	dot_pattern_expectancy	89.0	0.984	probe	AX	s568	False
259.549	1.5	261.002	1.5	AX	1.0	89.0	dot_pattern_expectancy	89.0	0.453	probe	AX	s568	False
263.561	1.5	264.986	1.636	BY	1.0	71.0	dot_pattern_expectancy	71.0	0.425	probe	BY	s568	False
267.709	1.5	269.623	1.5	AX	0.0	89.0	dot_pattern_expectancy	71.0	0.914	probe	AX	s568	False
271.717	1.5	273.346	2.18	AY	1.0	71.0	dot_pattern_expectancy	71.0	0.629	probe	AY	s568	False
276.406	1.5	278.724	1.5	AX	1.0	89.0	dot_pattern_expectancy	89.0	1.318	probe	AX	s568	False
280.415	1.5	281.835	1.908	AX	1.0	89.0	dot_pattern_expectancy	89.0	0.42	probe	AX	s568	False
284.832	1.5	286.537	1.636	BY	1.0	71.0	dot_pattern_expectancy	71.0	0.705	probe	BY	s568	False
288.976	1.5	289.975	1.636	BY	0.0	71.0	dot_pattern_expectancy	-1.0	n/a	probe	BY	s568	False
293.12	1.5	294.582	1.636	AX	1.0	89.0	dot_pattern_expectancy	89.0	0.462	probe	AX	s568	False
297.267	1.5	299.201	1.5	AX	1.0	89.0	dot_pattern_expectancy	89.0	0.934	probe	AX	s568	False
301.274	1.5	303.19	2.044	BY	1.0	71.0	dot_pattern_expectancy	71.0	0.916	probe	BY	s568	False
305.83	1.5	308.32	2.18	AY	1.0	71.0	dot_pattern_expectancy	71.0	1.49	probe	AY	s568	False
310.518	1.5	312.373	1.636	AY	1.0	71.0	dot_pattern_expectancy	71.0	0.855	probe	AY	s568	False
314.665	1.5	315.664	1.772	AY	0.0	71.0	dot_pattern_expectancy	-1.0	n/a	probe	AY	s568	False
318.948	1.5	320.455	1.5	BY	1.0	71.0	dot_pattern_expectancy	71.0	0.507	probe	BY	s568	False
322.956	1.5	324.27	1.908	BX	1.0	71.0	dot_pattern_expectancy	71.0	0.314	probe	BX	s568	False
327.373	1.5	328.872	2.044	AX	1.0	89.0	dot_pattern_expectancy	89.0	0.499	probe	AX	s568	False
331.927	1.5	333.429	1.636	AX	1.0	89.0	dot_pattern_expectancy	89.0	0.502	probe	AX	s568	False
336.074	1.5	337.982	1.772	AX	1.0	89.0	dot_pattern_expectancy	89.0	0.908	probe	AX	s568	False
340.354	1.5	342.063	1.636	AX	1.0	89.0	dot_pattern_expectancy	89.0	0.709	probe	AX	s568	False
344.501	1.5	345.862	1.772	BX	1.0	71.0	dot_pattern_expectancy	71.0	0.361	probe	BX	s568	False
348.784	1.5	350.416	1.5	AX	1.0	89.0	dot_pattern_expectancy	89.0	0.632	probe	AX	s568	False
363.304	1.5	365.026	1.636	BY	1.0	71.0	dot_pattern_expectancy	71.0	0.722	probe	BY	s568	False
367.451	1.5	369.316	1.5	AY	1.0	71.0	dot_pattern_expectancy	71.0	0.865	probe	AY	s568	False
371.462	1.5	372.999	2.044	AX	1.0	89.0	dot_pattern_expectancy	89.0	0.537	probe	AX	s568	False
376.022	1.5	377.325	1.772	BY	1.0	71.0	dot_pattern_expectancy	71.0	0.303	probe	BY	s568	False
380.305	1.5	381.304	1.636	BX	0.0	71.0	dot_pattern_expectancy	-1.0	n/a	probe	BX	s568	False
384.451	1.5	385.992	1.636	AX	1.0	89.0	dot_pattern_expectancy	89.0	0.541	probe	AX	s568	False
388.597	1.5	389.596	1.5	AX	0.0	89.0	dot_pattern_expectancy	-1.0	n/a	probe	AX	s568	False
392.609	1.5	394.302	1.5	AX	1.0	89.0	dot_pattern_expectancy	89.0	0.693	probe	AX	s568	False
396.62	1.5	397.619	2.044	AY	0.0	71.0	dot_pattern_expectancy	-1.0	n/a	probe	AY	s568	False
401.172	1.5	402.929	2.452	AX	1.0	89.0	dot_pattern_expectancy	89.0	0.757	probe	AX	s568	False
406.132	1.5	407.585	1.908	AX	1.0	89.0	dot_pattern_expectancy	89.0	0.453	probe	AX	s568	False
410.558	1.5	412.032	1.5	AX	1.0	89.0	dot_pattern_expectancy	89.0	0.474	probe	AX	s568	False
414.57	1.5	416.312	1.908	AX	1.0	89.0	dot_pattern_expectancy	89.0	0.742	probe	AX	s568	False
418.986	1.5	420.763	2.18	BX	1.0	71.0	dot_pattern_expectancy	71.0	0.777	probe	BX	s568	False
423.677	1.5	425.337	1.5	AX	1.0	89.0	dot_pattern_expectancy	89.0	0.66	probe	AX	s568	False
427.687	1.5	429.047	1.908	BY	1.0	71.0	dot_pattern_expectancy	71.0	0.36	probe	BY	s568	False
432.104	1.5	433.469	2.316	BX	1.0	71.0	dot_pattern_expectancy	71.0	0.365	probe	BX	s568	False
436.925	1.5	438.903	2.316	AY	1.0	71.0	dot_pattern_expectancy	71.0	0.978	probe	AY	s568	False
441.749	1.5	442.748	1.636	BX	0.0	71.0	dot_pattern_expectancy	-1.0	n/a	probe	BX	s568	False
445.891	1.5	447.467	1.5	AY	1.0	71.0	dot_pattern_expectancy	71.0	0.576	probe	AY	s568	False
449.899	1.5	451.306	1.908	BY	1.0	71.0	dot_pattern_expectancy	71.0	0.407	probe	BY	s568	False
454.317	1.5	455.316	1.5	AX	0.0	89.0	dot_pattern_expectancy	-1.0	n/a	probe	AX	s568	False
458.328	1.5	459.851	2.316	AY	1.0	71.0	dot_pattern_expectancy	71.0	0.523	probe	AY	s568	False
463.153	1.5	465.249	1.5	AX	1.0	89.0	dot_pattern_expectancy	89.0	1.096	probe	AX	s568	False
467.163	1.5	469.89	2.724	AY	0.0	71.0	dot_pattern_expectancy	89.0	1.727	probe	AY	s568	False
472.393	1.5	474.011	1.5	AX	1.0	89.0	dot_pattern_expectancy	89.0	0.618	probe	AX	s568	False
476.406	1.5	477.405	1.636	AX	0.0	89.0	dot_pattern_expectancy	-1.0	n/a	probe	AX	s568	False
480.551	1.5	481.55	1.636	AX	0.0	89.0	dot_pattern_expectancy	-1.0	n/a	probe	AX	s568	False
484.697	1.5	485.696	1.772	AX	0.0	89.0	dot_pattern_expectancy	-1.0	n/a	probe	AX	s568	False
488.979	1.5	490.516	1.772	BY	1.0	71.0	dot_pattern_expectancy	71.0	0.537	probe	BY	s568	False
493.263	1.5	494.657	1.5	AX	1.0	89.0	dot_pattern_expectancy	89.0	0.394	probe	AX	s568	False
497.27	1.5	498.61	2.452	BY	1.0	71.0	dot_pattern_expectancy	71.0	0.34	probe	BY	s568	False
502.231	1.5	503.23	1.636	AX	0.0	89.0	dot_pattern_expectancy	-1.0	n/a	probe	AX	s568	False
506.375	1.5	507.771	1.636	AX	1.0	89.0	dot_pattern_expectancy	89.0	0.396	probe	AX	s568	False
510.524	1.5	511.922	1.5	BX	1.0	71.0	dot_pattern_expectancy	71.0	0.398	probe	BX	s568	False
514.538	1.5	515.537	1.5	BX	0.0	71.0	dot_pattern_expectancy	-1.0	n/a	probe	BX	s568	False
518.547	1.5	519.954	2.316	AX	1.0	89.0	dot_pattern_expectancy	89.0	0.407	probe	AX	s568	False
523.371	1.5	524.967	2.044	AY	1.0	71.0	dot_pattern_expectancy	71.0	0.596	probe	AY	s568	False
527.925	1.5	529.574	3.948	AX	1.0	89.0	dot_pattern_expectancy	89.0	0.649	probe	AX	s568	False
534.381	1.5	535.862	1.636	AX	1.0	89.0	dot_pattern_expectancy	89.0	0.481	probe	AX	s568	False
549.038	1.5	550.719	1.636	AY	1.0	71.0	dot_pattern_expectancy	71.0	0.681	probe	AY	s568	False
553.182	1.5	554.685	1.636	AX	1.0	89.0	dot_pattern_expectancy	89.0	0.503	probe	AX	s568	False
557.324	1.5	558.999	1.5	AX	1.0	89.0	dot_pattern_expectancy	89.0	0.675	probe	AX	s568	False
561.334	1.5	563.091	1.5	AX	0.0	89.0	dot_pattern_expectancy	71.0	0.757	probe	AX	s568	False
565.34	1.5	566.953	1.908	AX	1.0	89.0	dot_pattern_expectancy	89.0	0.613	probe	AX	s568	False
569.759	1.5	571.181	1.636	BX	1.0	71.0	dot_pattern_expectancy	71.0	0.422	probe	BX	s568	False
573.906	1.5	574.905	2.044	AX	0.0	89.0	dot_pattern_expectancy	-1.0	n/a	probe	AX	s568	False
578.455	1.5	579.796	1.772	AX	1.0	89.0	dot_pattern_expectancy	89.0	0.341	probe	AX	s568	False
582.738	1.5	584.195	1.5	AX	1.0	89.0	dot_pattern_expectancy	89.0	0.457	probe	AX	s568	False
586.746	1.5	588.363	2.18	AX	1.0	89.0	dot_pattern_expectancy	89.0	0.617	probe	AX	s568	False
591.439	1.5	592.438	1.5	AX	0.0	89.0	dot_pattern_expectancy	-1.0	n/a	probe	AX	s568	False
595.445	1.5	596.886	3.676	BX	1.0	71.0	dot_pattern_expectancy	71.0	0.441	probe	BX	s568	False
601.632	1.5	603.046	1.636	BY	1.0	71.0	dot_pattern_expectancy	71.0	0.414	probe	BY	s568	False
605.776	1.5	608.085	1.636	BY	1.0	71.0	dot_pattern_expectancy	71.0	1.309	probe	BY	s568	False
609.92	1.5	611.392	1.5	BX	1.0	71.0	dot_pattern_expectancy	71.0	0.472	probe	BX	s568	False
613.931	1.5	615.619	1.908	AX	1.0	89.0	dot_pattern_expectancy	89.0	0.688	probe	AX	s568	False
618.347	1.5	619.346	1.636	AX	0.0	89.0	dot_pattern_expectancy	-1.0	n/a	probe	AX	s568	False
622.494	1.5	624.263	1.5	BX	0.0	71.0	dot_pattern_expectancy	89.0	0.769	probe	BX	s568	False
626.502	1.5	627.939	1.908	AX	1.0	89.0	dot_pattern_expectancy	89.0	0.437	probe	AX	s568	False
630.916	1.5	632.194	2.18	BY	1.0	71.0	dot_pattern_expectancy	71.0	0.278	probe	BY	s568	False
635.608	1.5	637.422	1.772	AX	1.0	89.0	dot_pattern_expectancy	89.0	0.814	probe	AX	s568	False
639.892	1.5	640.891	1.5	AX	0.0	89.0	dot_pattern_expectancy	-1.0	n/a	probe	AX	s568	False
643.897	1.5	645.452	1.5	AX	1.0	89.0	dot_pattern_expectancy	89.0	0.555	probe	AX	s568	False
647.904	1.5	649.338	2.044	AX	1.0	89.0	dot_pattern_expectancy	89.0	0.434	probe	AX	s568	False
652.463	1.5	653.462	2.86	AX	0.0	89.0	dot_pattern_expectancy	-1.0	n/a	probe	AX	s568	False
657.831	1.5	658.83	1.5	BX	0.0	71.0	dot_pattern_expectancy	-1.0	n/a	probe	BX	s568	False
661.84	1.5	663.17	1.772	BY	1.0	71.0	dot_pattern_expectancy	71.0	0.33	probe	BY	s568	False
666.127	1.5	667.639	1.772	AX	1.0	89.0	dot_pattern_expectancy	89.0	0.512	probe	AX	s568	False
670.41	1.5	671.799	2.86	AX	1.0	89.0	dot_pattern_expectancy	89.0	0.389	probe	AX	s568	False
675.777	1.5	677.181	1.772	AX	1.0	89.0	dot_pattern_expectancy	89.0	0.404	probe	AX	s568	False
680.061	1.5	681.334	1.636	BX	1.0	71.0	dot_pattern_expectancy	71.0	0.273	probe	BX	s568	False
684.204	1.5	685.474	2.452	BX	1.0	71.0	dot_pattern_expectancy	71.0	0.27	probe	BX	s568	False
689.165	1.5	690.632	1.636	AX	1.0	89.0	dot_pattern_expectancy	89.0	0.467	probe	AX	s568	False
693.306	1.5	694.622	1.5	BX	1.0	71.0	dot_pattern_expectancy	71.0	0.316	probe	BX	s568	False
697.315	1.5	698.71	1.636	AX	1.0	89.0	dot_pattern_expectancy	89.0	0.395	probe	AX	s568	False
701.459	1.5	703.145	1.636	AX	0.0	89.0	dot_pattern_expectancy	71.0	0.686	probe	AX	s568	False
705.603	1.5	707.727	2.18	BY	0.0	71.0	dot_pattern_expectancy	89.0	1.124	probe	BY	s568	False
710.294	1.5	711.717	1.5	AX	1.0	89.0	dot_pattern_expectancy	89.0	0.423	probe	AX	s568	False
714.302	1.5	715.841	1.636	AY	1.0	71.0	dot_pattern_expectancy	71.0	0.539	probe	AY	s568	False
718.451	1.5	719.997	1.636	AX	1.0	89.0	dot_pattern_expectancy	89.0	0.546	probe	AX	s568	False
