onset	duration	correct	correct_response	cue	experiment_exp_id	flanker_location	flanker_middle_direction	flanker_type	key_press	response_time	worker_id
3.510048	1.7	1.0	71.0	spatial	attention_network_task	down	right	incongruent	71	0.87	s567
6.118863999999999	1.7	1.0	89.0	double	attention_network_task	up	left	incongruent	89	0.789	s567
8.723728	1.7	1.0	89.0	double	attention_network_task	down	left	incongruent	89	0.925	s567
11.330727999999999	1.7	1.0	71.0	double	attention_network_task	down	right	incongruent	71	0.771	s567
13.938	1.7	1.0	89.0	double	attention_network_task	down	left	congruent	89	0.793	s567
16.543	1.7	0.0	89.0	spatial	attention_network_task	up	left	incongruent	71	0.734	s567
19.148728	1.7	1.0	71.0	spatial	attention_network_task	down	right	congruent	71	1.135	s567
21.754	1.7	1.0	89.0	spatial	attention_network_task	down	left	congruent	89	0.795	s567
24.36	1.7	1.0	89.0	spatial	attention_network_task	down	left	incongruent	89	0.707	s567
26.967727999999997	1.7	1.0	71.0	double	attention_network_task	down	right	congruent	71	0.691	s567
29.576	1.7	1.0	71.0	spatial	attention_network_task	down	right	incongruent	71	1.091	s567
32.182864	1.7	1.0	89.0	spatial	attention_network_task	up	left	congruent	89	1.09	s567
34.787728	1.7	1.0	89.0	spatial	attention_network_task	up	left	congruent	89	0.837	s567
37.396	1.7	1.0	89.0	spatial	attention_network_task	down	left	congruent	89	0.712	s567
40.001	1.7	0.0	89.0	double	attention_network_task	down	left	incongruent	71	0.826	s567
42.606	1.7	1.0	71.0	double	attention_network_task	down	right	congruent	71	0.643	s567
45.213	1.7	1.0	71.0	spatial	attention_network_task	up	right	incongruent	71	0.867	s567
47.82	1.7	1.0	89.0	double	attention_network_task	up	left	congruent	89	1.768	s567
50.425	1.7	1.0	89.0	spatial	attention_network_task	up	left	incongruent	89	1.495	s567
53.030728	1.7	1.0	89.0	double	attention_network_task	up	left	congruent	89	0.513	s567
55.635864	1.7	1.0	71.0	double	attention_network_task	up	right	incongruent	71	0.555	s567
58.243911999999995	1.7	1.0	89.0	double	attention_network_task	up	left	incongruent	89	0.617	s567
60.851728	1.7	1.0	89.0	spatial	attention_network_task	up	left	congruent	89	0.754	s567
63.456864	1.7	1.0	89.0	spatial	attention_network_task	down	left	congruent	89	1.266	s567
66.065864	1.7	0.0	89.0	double	attention_network_task	up	left	congruent	-1	n/a	s567
68.671	1.7	1.0	71.0	double	attention_network_task	up	right	congruent	71	0.614	s567
71.277	1.7	1.0	89.0	spatial	attention_network_task	up	left	incongruent	89	0.631	s567
73.882	1.7	1.0	71.0	spatial	attention_network_task	up	right	congruent	71	0.537	s567
76.487	1.7	1.0	71.0	double	attention_network_task	down	right	incongruent	71	1.615	s567
79.092864	1.7	0.0	89.0	spatial	attention_network_task	down	left	incongruent	71	0.813	s567
81.697728	1.7	1.0	71.0	double	attention_network_task	up	right	incongruent	71	1.101	s567
84.305864	1.7	1.0	71.0	spatial	attention_network_task	down	right	congruent	71	1.309	s567
86.91186400000001	1.7	1.0	71.0	double	attention_network_task	up	right	congruent	71	1.155	s567
89.517	1.7	1.0	71.0	double	attention_network_task	down	right	incongruent	71	0.921	s567
92.123	1.7	1.0	89.0	spatial	attention_network_task	up	left	congruent	89	1.245	s567
94.730592	1.7	1.0	71.0	double	attention_network_task	up	right	congruent	71	1.096	s567
97.33645600000001	1.7	1.0	89.0	double	attention_network_task	up	left	congruent	89	1.166	s567
99.941592	1.7	0.0	89.0	spatial	attention_network_task	down	left	incongruent	-1	n/a	s567
102.55	1.7	1.0	71.0	spatial	attention_network_task	up	right	congruent	71	0.664	s567
105.15759200000001	1.7	1.0	89.0	double	attention_network_task	up	left	congruent	89	0.644	s567
107.764	1.7	0.0	71.0	spatial	attention_network_task	up	right	congruent	-1	n/a	s567
110.368592	1.7	1.0	89.0	spatial	attention_network_task	down	left	congruent	89	1.045	s567
112.974	1.7	0.0	71.0	spatial	attention_network_task	down	right	incongruent	-1	n/a	s567
115.58	1.7	1.0	71.0	spatial	attention_network_task	down	right	incongruent	71	1.728	s567
118.185592	1.7	1.0	89.0	spatial	attention_network_task	down	left	incongruent	89	0.619	s567
120.790864	1.7	1.0	89.0	spatial	attention_network_task	down	left	incongruent	89	0.81	s567
123.395728	1.7	0.0	89.0	double	attention_network_task	up	left	incongruent	71	1.595	s567
126.001456	1.7	1.0	71.0	double	attention_network_task	up	right	incongruent	71	0.638	s567
128.609728	1.7	1.0	71.0	spatial	attention_network_task	down	right	incongruent	71	1.116	s567
131.215	1.7	1.0	71.0	spatial	attention_network_task	up	right	incongruent	71	0.773	s567
133.820592	1.7	1.0	71.0	spatial	attention_network_task	up	right	incongruent	71	0.642	s567
136.426	1.7	1.0	71.0	spatial	attention_network_task	up	right	congruent	71	0.776	s567
139.031	1.7	1.0	89.0	double	attention_network_task	down	left	congruent	89	1.418	s567
141.636456	1.7	0.0	71.0	double	attention_network_task	up	right	incongruent	-1	n/a	s567
144.242592	1.7	0.0	89.0	spatial	attention_network_task	down	left	congruent	71	1.403	s567
146.848	1.7	1.0	71.0	spatial	attention_network_task	up	right	congruent	71	0.856	s567
149.453864	1.7	1.0	71.0	spatial	attention_network_task	down	right	congruent	71	0.84	s567
152.06018400000002	1.7	1.0	71.0	spatial	attention_network_task	down	right	incongruent	71	0.711	s567
154.666864	1.7	1.0	89.0	double	attention_network_task	down	left	congruent	89	1.284	s567
157.273	1.7	1.0	89.0	spatial	attention_network_task	up	left	congruent	89	1.17	s567
159.880864	1.7	1.0	89.0	double	attention_network_task	down	left	incongruent	89	0.957	s567
162.485864	1.7	0.0	71.0	spatial	attention_network_task	up	right	incongruent	-1	n/a	s567
165.09186400000002	1.7	1.0	71.0	double	attention_network_task	up	right	incongruent	71	0.665	s567
167.696456	1.7	1.0	89.0	spatial	attention_network_task	up	left	congruent	89	0.708	s567
180.811	1.7	1.0	71.0	spatial	attention_network_task	down	right	congruent	71	0.6	s567
183.417728	1.7	1.0	71.0	double	attention_network_task	up	right	incongruent	71	0.825	s567
186.026	1.7	1.0	71.0	spatial	attention_network_task	down	right	congruent	71	0.669	s567
188.630864	1.7	1.0	89.0	spatial	attention_network_task	up	left	congruent	89	1.266	s567
191.236592	1.7	1.0	71.0	double	attention_network_task	up	right	incongruent	71	0.75	s567
193.841456	1.7	1.0	71.0	double	attention_network_task	up	right	congruent	71	0.894	s567
196.448	1.7	1.0	71.0	double	attention_network_task	down	right	incongruent	71	1.011	s567
199.052864	1.7	0.0	89.0	spatial	attention_network_task	up	left	incongruent	-1	n/a	s567
201.657864	1.7	1.0	71.0	double	attention_network_task	down	right	incongruent	71	0.815	s567
204.263864	1.7	1.0	71.0	spatial	attention_network_task	up	right	incongruent	71	1.233	s567
206.870864	1.7	0.0	71.0	double	attention_network_task	down	right	congruent	-1	n/a	s567
209.477728	1.7	1.0	89.0	spatial	attention_network_task	down	left	incongruent	89	0.83	s567
212.084864	1.7	1.0	71.0	spatial	attention_network_task	up	right	incongruent	71	1.7	s567
214.690592	1.7	0.0	89.0	spatial	attention_network_task	up	left	incongruent	-1	n/a	s567
217.297	1.7	0.0	89.0	double	attention_network_task	up	left	incongruent	71	1.205	s567
219.901864	1.7	0.0	71.0	double	attention_network_task	up	right	congruent	-1	n/a	s567
222.508	1.7	1.0	71.0	spatial	attention_network_task	up	right	congruent	71	1.964	s567
225.115864	1.7	1.0	89.0	double	attention_network_task	down	left	incongruent	89	0.787	s567
227.72004800000002	1.7	1.0	89.0	spatial	attention_network_task	down	left	congruent	89	0.583	s567
230.326728	1.7	1.0	71.0	double	attention_network_task	down	right	congruent	71	0.84	s567
232.931864	1.7	1.0	71.0	double	attention_network_task	up	right	congruent	71	0.897	s567
235.538	1.7	1.0	89.0	double	attention_network_task	up	left	incongruent	89	0.936	s567
238.142864	1.7	1.0	71.0	spatial	attention_network_task	up	right	incongruent	71	2.048	s567
240.747	1.7	1.0	89.0	double	attention_network_task	up	left	congruent	89	0.693	s567
243.353864	1.7	1.0	89.0	spatial	attention_network_task	up	left	incongruent	89	0.913	s567
245.959728	1.7	1.0	71.0	double	attention_network_task	down	right	incongruent	71	1.071	s567
248.564728	1.7	1.0	71.0	spatial	attention_network_task	up	right	incongruent	71	0.872	s567
251.170864	1.7	0.0	89.0	double	attention_network_task	down	left	congruent	-1	n/a	s567
253.776	1.7	1.0	71.0	double	attention_network_task	down	right	incongruent	71	0.798	s567
256.381864	1.7	1.0	89.0	double	attention_network_task	up	left	incongruent	89	1.189	s567
258.989	1.7	0.0	71.0	spatial	attention_network_task	down	right	congruent	-1	n/a	s567
261.594728	1.7	1.0	71.0	double	attention_network_task	down	right	congruent	71	1.743	s567
264.201	1.7	1.0	71.0	spatial	attention_network_task	down	right	incongruent	71	1.06	s567
266.806	1.7	1.0	89.0	spatial	attention_network_task	down	left	incongruent	89	1.03	s567
269.412864	1.7	1.0	89.0	spatial	attention_network_task	down	left	congruent	89	1.201	s567
272.019728	1.7	1.0	71.0	spatial	attention_network_task	down	right	congruent	71	0.895	s567
274.624592	1.7	1.0	89.0	double	attention_network_task	down	left	incongruent	89	0.815	s567
277.231	1.7	0.0	71.0	double	attention_network_task	up	right	congruent	-1	n/a	s567
279.837864	1.7	1.0	89.0	double	attention_network_task	up	left	congruent	89	0.96	s567
282.443864	1.7	1.0	71.0	spatial	attention_network_task	up	right	congruent	71	0.437	s567
285.049	1.7	1.0	89.0	double	attention_network_task	down	left	congruent	89	0.728	s567
287.653592	1.7	0.0	71.0	double	attention_network_task	down	right	incongruent	89	1.082	s567
290.258456	1.7	1.0	89.0	spatial	attention_network_task	down	left	congruent	89	1.277	s567
292.865864	1.7	1.0	89.0	spatial	attention_network_task	up	left	congruent	89	0.962	s567
295.472864	1.7	1.0	71.0	spatial	attention_network_task	up	right	congruent	71	0.937	s567
298.079	1.7	0.0	71.0	spatial	attention_network_task	down	right	incongruent	-1	n/a	s567
300.686	1.7	1.0	71.0	double	attention_network_task	down	right	congruent	71	1.136	s567
303.292864	1.7	0.0	89.0	double	attention_network_task	up	left	congruent	-1	n/a	s567
305.898	1.7	0.0	89.0	double	attention_network_task	down	left	congruent	-1	n/a	s567
308.505864	1.7	1.0	89.0	double	attention_network_task	down	left	congruent	89	0.791	s567
311.112	1.7	0.0	89.0	double	attention_network_task	down	left	congruent	-1	n/a	s567
313.716592	1.7	1.0	71.0	spatial	attention_network_task	down	right	congruent	71	0.803	s567
316.324	1.7	0.0	89.0	spatial	attention_network_task	up	left	incongruent	71	1.841	s567
318.930184	1.7	1.0	89.0	double	attention_network_task	down	left	incongruent	89	0.79	s567
321.53532	1.7	1.0	89.0	spatial	attention_network_task	down	left	congruent	89	1.032	s567
324.143	1.7	1.0	71.0	spatial	attention_network_task	down	right	congruent	71	0.882	s567
326.749864	1.7	1.0	89.0	spatial	attention_network_task	up	left	congruent	89	0.853	s567
329.354864	1.7	1.0	89.0	double	attention_network_task	down	left	incongruent	89	0.876	s567
331.960864	1.7	1.0	89.0	double	attention_network_task	up	left	incongruent	89	1.467	s567
334.566	1.7	1.0	71.0	double	attention_network_task	up	right	incongruent	71	1.193	s567
337.170864	1.7	1.0	89.0	spatial	attention_network_task	up	left	incongruent	89	1.253	s567
339.776048	1.7	1.0	89.0	spatial	attention_network_task	down	left	incongruent	89	1.673	s567
342.381864	1.7	0.0	89.0	double	attention_network_task	down	left	incongruent	-1	n/a	s567
344.988592	1.7	1.0	89.0	double	attention_network_task	up	left	incongruent	89	0.786	s567
