onset	duration	correct	correct_response	cue	experiment_exp_id	flanker_location	flanker_middle_direction	flanker_type	key_press	response_time	worker_id
3.516	1.7	1.0	71.0	spatial	attention_network_task	up	right	congruent	71	0.582	s591
6.123728	1.7	1.0	89.0	double	attention_network_task	down	left	incongruent	89	0.606	s591
8.732	1.7	1.0	71.0	spatial	attention_network_task	down	right	congruent	71	0.648	s591
11.343864	1.7	1.0	89.0	spatial	attention_network_task	up	left	congruent	89	0.546	s591
13.953592	1.7	1.0	89.0	double	attention_network_task	down	left	incongruent	89	0.716	s591
16.561456	1.7	1.0	71.0	double	attention_network_task	down	right	congruent	71	0.715	s591
19.175	1.7	1.0	89.0	double	attention_network_task	down	left	incongruent	89	0.602	s591
21.782864	1.7	1.0	71.0	spatial	attention_network_task	up	right	incongruent	71	0.461	s591
24.392864000000003	1.7	1.0	71.0	double	attention_network_task	down	right	incongruent	71	0.609	s591
27.000864	1.7	1.0	89.0	spatial	attention_network_task	up	left	incongruent	89	0.444	s591
29.612864000000002	1.7	1.0	89.0	double	attention_network_task	down	left	congruent	89	0.47	s591
32.220728	1.7	1.0	89.0	spatial	attention_network_task	down	left	incongruent	89	0.556	s591
34.828864	1.7	1.0	89.0	spatial	attention_network_task	up	left	incongruent	89	0.483	s591
37.436592	1.7	1.0	71.0	spatial	attention_network_task	up	right	incongruent	71	0.999	s591
40.045	1.7	1.0	89.0	double	attention_network_task	up	left	incongruent	89	0.635	s591
42.652864	1.7	1.0	89.0	double	attention_network_task	down	left	congruent	89	0.711	s591
45.261	1.7	1.0	71.0	spatial	attention_network_task	up	right	congruent	71	0.581	s591
47.868864	1.7	1.0	89.0	double	attention_network_task	down	left	incongruent	89	0.714	s591
50.476048000000006	1.7	1.0	89.0	spatial	attention_network_task	up	left	congruent	89	0.512	s591
53.085728	1.7	1.0	89.0	double	attention_network_task	down	left	congruent	89	0.485	s591
55.692864	1.7	1.0	89.0	double	attention_network_task	down	left	congruent	89	0.539	s591
58.302	1.7	1.0	71.0	double	attention_network_task	down	right	incongruent	71	0.763	s591
60.908864	1.7	1.0	71.0	spatial	attention_network_task	up	right	incongruent	71	0.529	s591
63.52	1.7	1.0	71.0	double	attention_network_task	up	right	congruent	71	0.469	s591
66.130864	1.7	1.0	89.0	spatial	attention_network_task	down	left	incongruent	89	0.492	s591
68.73872800000001	1.7	1.0	71.0	double	attention_network_task	down	right	incongruent	71	0.733	s591
71.347728	1.7	1.0	71.0	spatial	attention_network_task	up	right	incongruent	71	0.586	s591
73.954864	1.7	1.0	89.0	double	attention_network_task	down	left	congruent	89	0.714	s591
76.563	1.7	1.0	71.0	double	attention_network_task	up	right	incongruent	71	0.628	s591
79.176864	1.7	1.0	89.0	double	attention_network_task	up	left	incongruent	89	0.682	s591
81.785	1.7	1.0	71.0	spatial	attention_network_task	up	right	congruent	71	0.608	s591
84.392728	1.7	1.0	89.0	double	attention_network_task	down	left	congruent	89	0.584	s591
87.001	1.7	1.0	71.0	spatial	attention_network_task	down	right	incongruent	71	0.524	s591
89.609	1.7	1.0	89.0	spatial	attention_network_task	down	left	incongruent	89	0.455	s591
92.216864	1.7	1.0	71.0	spatial	attention_network_task	down	right	congruent	71	0.508	s591
94.82472800000001	1.7	1.0	71.0	spatial	attention_network_task	up	right	congruent	71	0.564	s591
97.432592	1.7	1.0	71.0	double	attention_network_task	down	right	incongruent	71	0.851	s591
100.042	1.7	1.0	89.0	double	attention_network_task	up	left	congruent	89	0.62	s591
102.648864	1.7	1.0	89.0	double	attention_network_task	down	left	congruent	89	0.523	s591
105.257864	1.7	1.0	89.0	spatial	attention_network_task	down	left	congruent	89	0.607	s591
107.867	1.7	1.0	71.0	double	attention_network_task	up	right	congruent	71	0.528	s591
110.483592	1.7	1.0	71.0	double	attention_network_task	down	right	incongruent	71	0.6	s591
113.09145600000001	1.7	1.0	89.0	spatial	attention_network_task	down	left	congruent	89	0.567	s591
115.703864	1.7	1.0	71.0	spatial	attention_network_task	up	right	congruent	71	0.513	s591
118.313864	1.7	1.0	89.0	spatial	attention_network_task	up	left	congruent	89	0.684	s591
120.922	1.7	1.0	71.0	spatial	attention_network_task	down	right	incongruent	71	0.612	s591
123.534	1.7	1.0	89.0	double	attention_network_task	up	left	congruent	89	0.617	s591
126.147864	1.7	1.0	89.0	double	attention_network_task	up	left	congruent	89	0.593	s591
128.757	1.7	1.0	71.0	double	attention_network_task	down	right	congruent	71	0.755	s591
131.364864	1.7	1.0	71.0	double	attention_network_task	down	right	congruent	71	0.685	s591
133.973	1.7	1.0	89.0	double	attention_network_task	up	left	congruent	89	0.64	s591
136.580592	1.7	1.0	89.0	spatial	attention_network_task	down	left	congruent	89	0.48	s591
139.19	1.7	1.0	71.0	spatial	attention_network_task	down	right	incongruent	71	0.642	s591
141.801184	1.7	1.0	71.0	double	attention_network_task	down	right	incongruent	71	0.776	s591
144.40932	1.7	1.0	71.0	spatial	attention_network_task	down	right	congruent	71	0.543	s591
147.018	1.7	1.0	89.0	spatial	attention_network_task	down	left	congruent	89	0.537	s591
149.626864	1.7	1.0	71.0	spatial	attention_network_task	down	right	congruent	71	0.769	s591
152.234864	1.7	1.0	71.0	double	attention_network_task	up	right	incongruent	71	0.775	s591
154.842864	1.7	1.0	71.0	double	attention_network_task	up	right	incongruent	71	0.564	s591
157.451	1.7	1.0	89.0	double	attention_network_task	up	left	incongruent	89	0.503	s591
160.057864	1.7	1.0	71.0	spatial	attention_network_task	down	right	incongruent	71	0.61	s591
162.66604800000002	1.7	1.0	89.0	spatial	attention_network_task	down	left	incongruent	89	0.481	s591
165.279864	1.7	1.0	89.0	double	attention_network_task	down	left	incongruent	89	0.51	s591
167.893592	1.7	1.0	89.0	double	attention_network_task	down	left	incongruent	89	0.604	s591
181.013048	1.7	1.0	89.0	spatial	attention_network_task	up	left	incongruent	89	0.63	s591
183.620864	1.7	1.0	71.0	double	attention_network_task	down	right	incongruent	71	0.754	s591
186.229728	1.7	1.0	89.0	double	attention_network_task	up	left	incongruent	89	0.466	s591
188.837728	1.7	1.0	89.0	double	attention_network_task	up	left	incongruent	89	0.742	s591
191.446	1.7	1.0	71.0	double	attention_network_task	down	right	congruent	71	0.799	s591
194.055	1.7	1.0	71.0	spatial	attention_network_task	down	right	incongruent	71	0.65	s591
196.66272800000002	1.7	1.0	71.0	spatial	attention_network_task	down	right	congruent	71	0.634	s591
199.27	1.7	1.0	89.0	spatial	attention_network_task	down	left	congruent	89	0.513	s591
201.879	1.7	1.0	71.0	spatial	attention_network_task	down	right	incongruent	71	0.643	s591
204.486728	1.7	1.0	71.0	double	attention_network_task	down	right	congruent	71	0.746	s591
207.095	1.7	1.0	89.0	spatial	attention_network_task	down	left	incongruent	89	0.546	s591
209.702864	1.7	1.0	89.0	spatial	attention_network_task	up	left	congruent	89	0.475	s591
212.315728	1.7	1.0	89.0	spatial	attention_network_task	down	left	congruent	89	0.537	s591
214.926	1.7	1.0	89.0	spatial	attention_network_task	up	left	congruent	89	0.467	s591
217.534	1.7	1.0	71.0	double	attention_network_task	up	right	incongruent	71	0.857	s591
220.141	1.7	1.0	71.0	double	attention_network_task	up	right	congruent	71	0.735	s591
222.749	1.7	1.0	89.0	spatial	attention_network_task	up	left	incongruent	89	0.598	s591
225.362	1.7	1.0	89.0	double	attention_network_task	down	left	congruent	89	0.642	s591
227.97	1.7	1.0	89.0	spatial	attention_network_task	down	left	incongruent	89	0.444	s591
230.577728	1.7	1.0	71.0	double	attention_network_task	up	right	congruent	71	0.55	s591
233.186864	1.7	1.0	89.0	double	attention_network_task	up	left	incongruent	89	0.715	s591
235.79791200000003	1.7	1.0	89.0	double	attention_network_task	up	left	incongruent	89	0.698	s591
238.407728	1.7	1.0	89.0	spatial	attention_network_task	up	left	congruent	89	0.705	s591
241.017864	1.7	1.0	89.0	spatial	attention_network_task	up	left	congruent	89	0.497	s591
243.628864	1.7	1.0	89.0	double	attention_network_task	up	left	congruent	89	0.442	s591
246.238	1.7	1.0	71.0	double	attention_network_task	down	right	congruent	71	0.743	s591
248.846	1.7	1.0	71.0	spatial	attention_network_task	up	right	incongruent	71	0.676	s591
251.454	1.7	1.0	71.0	spatial	attention_network_task	up	right	congruent	71	0.518	s591
254.062	1.7	1.0	71.0	double	attention_network_task	up	right	incongruent	71	0.582	s591
256.669864	1.7	1.0	89.0	spatial	attention_network_task	up	left	incongruent	89	0.578	s591
259.277728	1.7	1.0	71.0	double	attention_network_task	down	right	incongruent	71	0.756	s591
261.885864	1.7	1.0	71.0	spatial	attention_network_task	down	right	congruent	71	0.495	s591
264.493864	1.7	1.0	71.0	double	attention_network_task	down	right	congruent	71	0.479	s591
267.102	1.7	1.0	89.0	double	attention_network_task	down	left	incongruent	89	0.588	s591
269.71	1.7	1.0	71.0	spatial	attention_network_task	down	right	congruent	71	0.625	s591
272.317592	1.7	1.0	71.0	double	attention_network_task	up	right	congruent	71	0.591	s591
274.930456	1.7	1.0	71.0	double	attention_network_task	up	right	congruent	71	0.431	s591
277.539592	1.7	1.0	89.0	spatial	attention_network_task	up	left	incongruent	89	0.73	s591
280.152	1.7	1.0	71.0	spatial	attention_network_task	up	right	congruent	71	0.477	s591
282.76059200000003	1.7	1.0	89.0	double	attention_network_task	up	left	congruent	89	0.559	s591
285.369	1.7	1.0	89.0	spatial	attention_network_task	down	left	congruent	89	0.591	s591
287.976592	1.7	1.0	71.0	spatial	attention_network_task	up	right	congruent	71	0.57	s591
290.586	1.7	1.0	89.0	spatial	attention_network_task	up	left	incongruent	89	0.493	s591
293.194	1.7	1.0	71.0	spatial	attention_network_task	up	right	incongruent	71	0.521	s591
295.800592	1.7	1.0	71.0	spatial	attention_network_task	up	right	incongruent	71	0.499	s591
298.408864	1.7	1.0	71.0	spatial	attention_network_task	up	right	incongruent	71	0.486	s591
301.02272800000003	1.7	1.0	89.0	double	attention_network_task	down	left	incongruent	89	0.723	s591
303.631456	1.7	1.0	71.0	double	attention_network_task	up	right	incongruent	71	0.664	s591
306.243728	1.7	1.0	71.0	spatial	attention_network_task	down	right	incongruent	71	0.564	s591
308.853	1.7	1.0	89.0	spatial	attention_network_task	down	left	incongruent	89	0.535	s591
311.459592	1.7	1.0	71.0	spatial	attention_network_task	down	right	incongruent	71	0.525	s591
314.069	1.7	1.0	89.0	spatial	attention_network_task	down	left	congruent	89	0.456	s591
316.682	1.7	1.0	89.0	double	attention_network_task	up	left	congruent	89	0.731	s591
319.28945600000003	1.7	1.0	89.0	double	attention_network_task	up	left	incongruent	89	0.862	s591
321.89759200000003	1.7	1.0	71.0	spatial	attention_network_task	down	right	congruent	71	0.595	s591
324.511	1.7	1.0	89.0	spatial	attention_network_task	up	left	congruent	89	0.425	s591
327.120864	1.7	1.0	89.0	spatial	attention_network_task	up	left	congruent	89	0.485	s591
329.730184	1.7	1.0	89.0	spatial	attention_network_task	down	left	incongruent	89	0.485	s591
332.340864	1.7	1.0	71.0	double	attention_network_task	up	right	congruent	71	0.607	s591
334.949	1.7	1.0	89.0	spatial	attention_network_task	up	left	congruent	89	0.416	s591
337.556864	1.7	1.0	71.0	double	attention_network_task	up	right	incongruent	71	0.645	s591
340.165864	1.7	1.0	89.0	spatial	attention_network_task	up	left	incongruent	89	0.474	s591
342.777864	1.7	1.0	71.0	double	attention_network_task	up	right	incongruent	71	0.562	s591
345.383456	1.7	1.0	71.0	spatial	attention_network_task	down	right	congruent	71	0.548	s591
