onset	duration	block_duration	movement_onset	planning	condition	exp_stage	experiment_exp_id	key_press	problem_id	response_time	trial_id	trial_type	worker_id	junk
3.007	3.855	3.855	6.862	1	UA_with_intermediate	practice	ward_and_allport	71	0.0	3.855	to_hand	poldrack-single-stim	s524	False
6.864	0.1	0.419	7.283	0	UA_with_intermediate	practice	ward_and_allport	82	0.0	0.419	to_board	poldrack-single-stim	s524	False
7.286	0.1	0.679	7.965	0	UA_with_intermediate	practice	ward_and_allport	71	0.0	0.679	to_hand	poldrack-single-stim	s524	False
7.967	0.1	0.337	8.304	0	UA_with_intermediate	practice	ward_and_allport	89	0.0	0.337	to_board	poldrack-single-stim	s524	False
8.306	0.1	0.706	9.012	0	UA_with_intermediate	practice	ward_and_allport	82	0.0	0.706	to_hand	poldrack-single-stim	s524	False
9.014	0.1	0.357	9.371	0	UA_with_intermediate	practice	ward_and_allport	89	0.0	0.357	to_board	poldrack-single-stim	s524	False
9.374	1.0	2.5	9.373	0	UA_with_intermediate	practice	ward_and_allport	-1	0.0	n/a	feedback	poldrack-single-stim	s524	False
11.877	2.788	2.788	14.665	1	UA_with_intermediate	practice	ward_and_allport	89	1.0	2.788	to_hand	poldrack-single-stim	s524	False
14.667	0.1	0.307	14.974	0	UA_with_intermediate	practice	ward_and_allport	82	1.0	0.307	to_board	poldrack-single-stim	s524	False
14.977	0.1	0.328	15.305	0	UA_with_intermediate	practice	ward_and_allport	71	1.0	0.328	to_hand	poldrack-single-stim	s524	False
15.306	0.1	0.31	15.616	0	UA_with_intermediate	practice	ward_and_allport	89	1.0	0.31	to_board	poldrack-single-stim	s524	False
15.617	0.1	0.519	16.136	0	UA_with_intermediate	practice	ward_and_allport	82	1.0	0.519	to_hand	poldrack-single-stim	s524	False
16.138	0.1	0.219	16.357	0	UA_with_intermediate	practice	ward_and_allport	89	1.0	0.219	to_board	poldrack-single-stim	s524	False
16.359	1.0	2.1	16.358	0	UA_with_intermediate	practice	ward_and_allport	-1	1.0	n/a	feedback	poldrack-single-stim	s524	False
18.46	2.949	2.949	21.409	1	UA_without_intermediate	practice	ward_and_allport	82	2.0	2.949	to_hand	poldrack-single-stim	s524	False
21.411	0.1	0.308	21.719	0	UA_without_intermediate	practice	ward_and_allport	89	2.0	0.308	to_board	poldrack-single-stim	s524	False
21.724	0.1	0.311	22.035	0	UA_without_intermediate	practice	ward_and_allport	71	2.0	0.311	to_hand	poldrack-single-stim	s524	False
22.035	0.1	0.316	22.351	0	UA_without_intermediate	practice	ward_and_allport	89	2.0	0.316	to_board	poldrack-single-stim	s524	False
22.353	0.1	0.334	22.687	0	UA_without_intermediate	practice	ward_and_allport	71	2.0	0.334	to_hand	poldrack-single-stim	s524	False
22.688	0.1	0.326	23.014	0	UA_without_intermediate	practice	ward_and_allport	89	2.0	0.326	to_board	poldrack-single-stim	s524	False
23.017	1.0	2.2	23.016	0	UA_without_intermediate	practice	ward_and_allport	-1	2.0	n/a	feedback	poldrack-single-stim	s524	False
25.219	3.156	3.156	28.375	1	UA_without_intermediate	practice	ward_and_allport	71	3.0	3.156	to_hand	poldrack-single-stim	s524	False
28.375	0.1	0.299	28.674	0	UA_without_intermediate	practice	ward_and_allport	89	3.0	0.299	to_board	poldrack-single-stim	s524	False
28.676	0.1	0.32	28.996	0	UA_without_intermediate	practice	ward_and_allport	82	3.0	0.32	to_hand	poldrack-single-stim	s524	False
28.997	0.1	0.269	29.266	0	UA_without_intermediate	practice	ward_and_allport	89	3.0	0.269	to_board	poldrack-single-stim	s524	False
29.268	0.1	0.255	29.523	0	UA_without_intermediate	practice	ward_and_allport	71	3.0	0.255	to_hand	poldrack-single-stim	s524	False
29.525	0.1	0.269	29.794	0	UA_without_intermediate	practice	ward_and_allport	89	3.0	0.269	to_board	poldrack-single-stim	s524	False
29.797	1.0	2.0	29.796	0	UA_without_intermediate	practice	ward_and_allport	-1	3.0	n/a	feedback	poldrack-single-stim	s524	False
33.802	4.077	4.077	37.879	1	PA_with_intermediate	test	ward_and_allport	89	0.0	4.077	to_hand	poldrack-single-stim	s524	False
37.881	0.1	0.285	38.166	0	PA_with_intermediate	test	ward_and_allport	71	0.0	0.285	to_board	poldrack-single-stim	s524	False
38.168	0.1	1.09	39.258	0	PA_with_intermediate	test	ward_and_allport	89	0.0	1.09	to_hand	poldrack-single-stim	s524	False
39.259	0.1	0.275	39.534	0	PA_with_intermediate	test	ward_and_allport	82	0.0	0.275	to_board	poldrack-single-stim	s524	False
39.536	0.1	0.591	40.127	0	PA_with_intermediate	test	ward_and_allport	71	0.0	0.591	to_hand	poldrack-single-stim	s524	False
40.128	0.1	0.234	40.362	0	PA_with_intermediate	test	ward_and_allport	89	0.0	0.234	to_board	poldrack-single-stim	s524	False
40.365	1.0	4.176	40.364	0	PA_with_intermediate	test	ward_and_allport	-1	0.0	n/a	feedback	poldrack-single-stim	s524	False
44.544	3.13	3.13	47.674	1	PA_with_intermediate	test	ward_and_allport	71	1.0	3.13	to_hand	poldrack-single-stim	s524	False
47.676	0.1	0.332	48.008	0	PA_with_intermediate	test	ward_and_allport	89	1.0	0.332	to_board	poldrack-single-stim	s524	False
48.011	0.1	0.496	48.507	0	PA_with_intermediate	test	ward_and_allport	71	1.0	0.496	to_hand	poldrack-single-stim	s524	False
48.508	0.1	0.492	49.0	0	PA_with_intermediate	test	ward_and_allport	82	1.0	0.492	to_board	poldrack-single-stim	s524	False
49.003	0.1	0.293	49.296	0	PA_with_intermediate	test	ward_and_allport	89	1.0	0.293	to_hand	poldrack-single-stim	s524	False
49.297	0.1	0.273	49.57	0	PA_with_intermediate	test	ward_and_allport	71	1.0	0.273	to_board	poldrack-single-stim	s524	False
49.573	1.0	3.36	49.572	0	PA_with_intermediate	test	ward_and_allport	-1	1.0	n/a	feedback	poldrack-single-stim	s524	False
52.937	3.134	3.134	56.071	1	PA_with_intermediate	test	ward_and_allport	71	2.0	3.134	to_hand	poldrack-single-stim	s524	False
56.071	0.1	0.316	56.387	0	PA_with_intermediate	test	ward_and_allport	82	2.0	0.316	to_board	poldrack-single-stim	s524	False
56.39	0.1	0.314	56.704	0	PA_with_intermediate	test	ward_and_allport	71	2.0	0.314	to_hand	poldrack-single-stim	s524	False
56.706	0.1	0.286	56.992	0	PA_with_intermediate	test	ward_and_allport	89	2.0	0.286	to_board	poldrack-single-stim	s524	False
56.994	0.1	0.322	57.316	0	PA_with_intermediate	test	ward_and_allport	82	2.0	0.322	to_hand	poldrack-single-stim	s524	False
57.317	0.1	0.274	57.591	0	PA_with_intermediate	test	ward_and_allport	89	2.0	0.274	to_board	poldrack-single-stim	s524	False
57.595	1.0	2.0	57.594	0	PA_with_intermediate	test	ward_and_allport	-1	2.0	n/a	feedback	poldrack-single-stim	s524	False
59.598	3.032	3.032	62.63	1	PA_without_intermediate	test	ward_and_allport	89	3.0	3.032	to_hand	poldrack-single-stim	s524	False
62.631	0.1	0.317	62.948	0	PA_without_intermediate	test	ward_and_allport	82	3.0	0.317	to_board	poldrack-single-stim	s524	False
62.951	0.1	0.304	63.255	0	PA_without_intermediate	test	ward_and_allport	89	3.0	0.304	to_hand	poldrack-single-stim	s524	False
63.256	0.1	0.304	63.56	0	PA_without_intermediate	test	ward_and_allport	82	3.0	0.304	to_board	poldrack-single-stim	s524	False
63.563	0.1	0.307	63.87	0	PA_without_intermediate	test	ward_and_allport	89	3.0	0.307	to_hand	poldrack-single-stim	s524	False
63.871	0.1	0.295	64.166	0	PA_without_intermediate	test	ward_and_allport	71	3.0	0.295	to_board	poldrack-single-stim	s524	False
64.17	1.0	2.408	64.169	0	PA_without_intermediate	test	ward_and_allport	-1	3.0	n/a	feedback	poldrack-single-stim	s524	False
66.581	4.038	4.038	70.619	1	PA_with_intermediate	test	ward_and_allport	71	4.0	4.038	to_hand	poldrack-single-stim	s524	False
70.621	0.1	0.269	70.89	0	PA_with_intermediate	test	ward_and_allport	89	4.0	0.269	to_board	poldrack-single-stim	s524	False
70.893	0.1	0.326	71.219	0	PA_with_intermediate	test	ward_and_allport	71	4.0	0.326	to_hand	poldrack-single-stim	s524	False
71.22	0.1	0.316	71.536	0	PA_with_intermediate	test	ward_and_allport	82	4.0	0.316	to_board	poldrack-single-stim	s524	False
71.539	0.1	0.294	71.833	0	PA_with_intermediate	test	ward_and_allport	89	4.0	0.294	to_hand	poldrack-single-stim	s524	False
71.834	0.1	0.27	72.104	0	PA_with_intermediate	test	ward_and_allport	71	4.0	0.27	to_board	poldrack-single-stim	s524	False
72.109	1.0	2.816	72.108	0	PA_with_intermediate	test	ward_and_allport	-1	4.0	n/a	feedback	poldrack-single-stim	s524	False
74.927	3.114	3.114	78.041	1	PA_without_intermediate	test	ward_and_allport	89	5.0	3.114	to_hand	poldrack-single-stim	s524	False
78.043	0.1	0.277	78.32	0	PA_without_intermediate	test	ward_and_allport	71	5.0	0.277	to_board	poldrack-single-stim	s524	False
78.324	0.1	0.285	78.609	0	PA_without_intermediate	test	ward_and_allport	89	5.0	0.285	to_hand	poldrack-single-stim	s524	False
78.61	0.1	0.269	78.879	0	PA_without_intermediate	test	ward_and_allport	71	5.0	0.269	to_board	poldrack-single-stim	s524	False
78.882	0.1	0.283	79.165	0	PA_without_intermediate	test	ward_and_allport	89	5.0	0.283	to_hand	poldrack-single-stim	s524	False
79.167	0.1	0.435	79.602	0	PA_without_intermediate	test	ward_and_allport	82	5.0	0.435	to_board	poldrack-single-stim	s524	False
79.606	1.0	3.088	79.605	0	PA_without_intermediate	test	ward_and_allport	-1	5.0	n/a	feedback	poldrack-single-stim	s524	False
82.697	3.139	3.139	85.836	1	PA_without_intermediate	test	ward_and_allport	82	6.0	3.139	to_hand	poldrack-single-stim	s524	False
85.838	0.1	0.297	86.135	0	PA_without_intermediate	test	ward_and_allport	71	6.0	0.297	to_board	poldrack-single-stim	s524	False
86.138	0.1	0.295	86.433	0	PA_without_intermediate	test	ward_and_allport	82	6.0	0.295	to_hand	poldrack-single-stim	s524	False
86.434	0.1	0.281	86.715	0	PA_without_intermediate	test	ward_and_allport	89	6.0	0.281	to_board	poldrack-single-stim	s524	False
86.719	0.1	0.361	87.08	0	PA_without_intermediate	test	ward_and_allport	82	6.0	0.361	to_hand	poldrack-single-stim	s524	False
87.081	0.1	0.829	87.91	0	PA_without_intermediate	test	ward_and_allport	71	6.0	0.829	to_board	poldrack-single-stim	s524	False
87.914	1.0	2.136	87.913	0	PA_without_intermediate	test	ward_and_allport	-1	6.0	n/a	feedback	poldrack-single-stim	s524	False
90.054	2.603	2.603	92.657	1	PA_without_intermediate	test	ward_and_allport	71	7.0	2.603	to_hand	poldrack-single-stim	s524	False
92.659	0.1	0.246	92.905	0	PA_without_intermediate	test	ward_and_allport	89	7.0	0.246	to_board	poldrack-single-stim	s524	False
92.909	0.1	0.263	93.172	0	PA_without_intermediate	test	ward_and_allport	71	7.0	0.263	to_hand	poldrack-single-stim	s524	False
93.173	0.1	0.277	93.45	0	PA_without_intermediate	test	ward_and_allport	89	7.0	0.277	to_board	poldrack-single-stim	s524	False
93.454	0.1	0.28	93.734	0	PA_without_intermediate	test	ward_and_allport	71	7.0	0.28	to_hand	poldrack-single-stim	s524	False
93.735	0.1	0.254	93.989	0	PA_without_intermediate	test	ward_and_allport	82	7.0	0.254	to_board	poldrack-single-stim	s524	False
93.994	1.0	7.168	93.993	0	PA_without_intermediate	test	ward_and_allport	-1	7.0	n/a	feedback	poldrack-single-stim	s524	False
101.166	3.218	3.218	104.384	1	PA_without_intermediate	test	ward_and_allport	82	8.0	3.218	to_hand	poldrack-single-stim	s524	False
104.386	0.1	0.302	104.688	0	PA_without_intermediate	test	ward_and_allport	89	8.0	0.302	to_board	poldrack-single-stim	s524	False
104.692	0.1	0.259	104.951	0	PA_without_intermediate	test	ward_and_allport	82	8.0	0.259	to_hand	poldrack-single-stim	s524	False
104.952	0.1	0.267	105.219	0	PA_without_intermediate	test	ward_and_allport	89	8.0	0.267	to_board	poldrack-single-stim	s524	False
105.223	0.1	0.275	105.498	0	PA_without_intermediate	test	ward_and_allport	82	8.0	0.275	to_hand	poldrack-single-stim	s524	False
105.5	0.1	0.238	105.738	0	PA_without_intermediate	test	ward_and_allport	71	8.0	0.238	to_board	poldrack-single-stim	s524	False
105.742	1.0	2.816	105.741	0	PA_without_intermediate	test	ward_and_allport	-1	8.0	n/a	feedback	poldrack-single-stim	s524	False
108.562	2.889	2.889	111.451	1	PA_with_intermediate	test	ward_and_allport	71	9.0	2.889	to_hand	poldrack-single-stim	s524	False
111.452	0.1	0.253	111.705	0	PA_with_intermediate	test	ward_and_allport	89	9.0	0.253	to_board	poldrack-single-stim	s524	False
111.708	0.1	0.275	111.983	0	PA_with_intermediate	test	ward_and_allport	71	9.0	0.275	to_hand	poldrack-single-stim	s524	False
111.984	0.1	0.264	112.248	0	PA_with_intermediate	test	ward_and_allport	82	9.0	0.264	to_board	poldrack-single-stim	s524	False
112.252	0.1	0.235	112.487	0	PA_with_intermediate	test	ward_and_allport	89	9.0	0.235	to_hand	poldrack-single-stim	s524	False
112.488	0.1	0.256	112.744	0	PA_with_intermediate	test	ward_and_allport	82	9.0	0.256	to_board	poldrack-single-stim	s524	False
112.749	1.0	2.952	112.748	0	PA_with_intermediate	test	ward_and_allport	-1	9.0	n/a	feedback	poldrack-single-stim	s524	False
115.705	3.203	3.203	118.908	1	PA_with_intermediate	test	ward_and_allport	82	10.0	3.203	to_hand	poldrack-single-stim	s524	False
118.909	0.1	0.291	119.2	0	PA_with_intermediate	test	ward_and_allport	71	10.0	0.291	to_board	poldrack-single-stim	s524	False
119.206	0.1	0.274	119.48	0	PA_with_intermediate	test	ward_and_allport	82	10.0	0.274	to_hand	poldrack-single-stim	s524	False
119.481	0.1	0.27	119.751	0	PA_with_intermediate	test	ward_and_allport	89	10.0	0.27	to_board	poldrack-single-stim	s524	False
119.756	0.1	0.3	120.056	0	PA_with_intermediate	test	ward_and_allport	71	10.0	0.3	to_hand	poldrack-single-stim	s524	False
120.057	0.1	0.322	120.379	0	PA_with_intermediate	test	ward_and_allport	89	10.0	0.322	to_board	poldrack-single-stim	s524	False
120.384	1.0	2.136	120.383	0	PA_with_intermediate	test	ward_and_allport	-1	10.0	n/a	feedback	poldrack-single-stim	s524	False
122.525	3.849	3.849	126.374	1	PA_without_intermediate	test	ward_and_allport	71	11.0	3.849	to_hand	poldrack-single-stim	s524	False
126.376	0.1	0.266	126.642	0	PA_without_intermediate	test	ward_and_allport	89	11.0	0.266	to_board	poldrack-single-stim	s524	False
126.648	0.1	0.252	126.9	0	PA_without_intermediate	test	ward_and_allport	71	11.0	0.252	to_hand	poldrack-single-stim	s524	False
126.902	0.1	0.255	127.157	0	PA_without_intermediate	test	ward_and_allport	82	11.0	0.255	to_board	poldrack-single-stim	s524	False
127.163	0.1	0.262	127.425	0	PA_without_intermediate	test	ward_and_allport	71	11.0	0.262	to_hand	poldrack-single-stim	s524	False
127.427	0.1	0.239	127.666	0	PA_without_intermediate	test	ward_and_allport	89	11.0	0.239	to_board	poldrack-single-stim	s524	False
127.672	1.0	2.68	127.671	0	PA_without_intermediate	test	ward_and_allport	-1	11.0	n/a	feedback	poldrack-single-stim	s524	False
130.357	2.801	2.801	133.158	1	PA_without_intermediate	test	ward_and_allport	82	12.0	2.801	to_hand	poldrack-single-stim	s524	False
133.16	0.1	0.243	133.403	0	PA_without_intermediate	test	ward_and_allport	89	12.0	0.243	to_board	poldrack-single-stim	s524	False
133.409	0.1	0.304	133.713	0	PA_without_intermediate	test	ward_and_allport	82	12.0	0.304	to_hand	poldrack-single-stim	s524	False
133.714	0.1	0.252	133.966	0	PA_without_intermediate	test	ward_and_allport	71	12.0	0.252	to_board	poldrack-single-stim	s524	False
133.972	0.1	0.313	134.285	0	PA_without_intermediate	test	ward_and_allport	82	12.0	0.313	to_hand	poldrack-single-stim	s524	False
134.287	0.1	0.249	134.536	0	PA_without_intermediate	test	ward_and_allport	89	12.0	0.249	to_board	poldrack-single-stim	s524	False
134.542	1.0	3.088	134.541	0	PA_without_intermediate	test	ward_and_allport	-1	12.0	n/a	feedback	poldrack-single-stim	s524	False
137.635	3.05	3.05	140.685	1	PA_with_intermediate	test	ward_and_allport	71	13.0	3.05	to_hand	poldrack-single-stim	s524	False
140.686	0.1	0.476	141.162	0	PA_with_intermediate	test	ward_and_allport	82	13.0	0.476	to_board	poldrack-single-stim	s524	False
141.167	0.1	0.302	141.469	0	PA_with_intermediate	test	ward_and_allport	71	13.0	0.302	to_hand	poldrack-single-stim	s524	False
141.471	0.1	0.247	141.718	0	PA_with_intermediate	test	ward_and_allport	89	13.0	0.247	to_board	poldrack-single-stim	s524	False
141.724	0.1	0.256	141.98	0	PA_with_intermediate	test	ward_and_allport	82	13.0	0.256	to_hand	poldrack-single-stim	s524	False
141.983	0.1	0.225	142.208	0	PA_with_intermediate	test	ward_and_allport	71	13.0	0.225	to_board	poldrack-single-stim	s524	False
142.213	1.0	2.0	142.212	0	PA_with_intermediate	test	ward_and_allport	-1	13.0	n/a	feedback	poldrack-single-stim	s524	False
144.218	2.775	2.775	146.993	1	PA_without_intermediate	test	ward_and_allport	71	14.0	2.775	to_hand	poldrack-single-stim	s524	False
146.995	0.1	0.299	147.294	0	PA_without_intermediate	test	ward_and_allport	82	14.0	0.299	to_board	poldrack-single-stim	s524	False
147.299	0.1	0.266	147.565	0	PA_without_intermediate	test	ward_and_allport	71	14.0	0.266	to_hand	poldrack-single-stim	s524	False
147.566	0.1	0.276	147.842	0	PA_without_intermediate	test	ward_and_allport	89	14.0	0.276	to_board	poldrack-single-stim	s524	False
147.848	0.1	0.482	148.33	0	PA_without_intermediate	test	ward_and_allport	71	14.0	0.482	to_hand	poldrack-single-stim	s524	False
148.33	0.1	0.249	148.579	0	PA_without_intermediate	test	ward_and_allport	82	14.0	0.249	to_board	poldrack-single-stim	s524	False
148.585	1.0	2.0	148.584	0	PA_without_intermediate	test	ward_and_allport	-1	14.0	n/a	feedback	poldrack-single-stim	s524	False
155.591	3.315	3.315	158.906	1	PA_without_intermediate	test	ward_and_allport	89	15.0	3.315	to_hand	poldrack-single-stim	s524	False
158.908	0.1	0.298	159.206	0	PA_without_intermediate	test	ward_and_allport	71	15.0	0.298	to_board	poldrack-single-stim	s524	False
159.212	0.1	0.257	159.469	0	PA_without_intermediate	test	ward_and_allport	89	15.0	0.257	to_hand	poldrack-single-stim	s524	False
159.47	0.1	0.261	159.731	0	PA_without_intermediate	test	ward_and_allport	82	15.0	0.261	to_board	poldrack-single-stim	s524	False
159.736	0.1	0.234	159.97	0	PA_without_intermediate	test	ward_and_allport	89	15.0	0.234	to_hand	poldrack-single-stim	s524	False
159.972	0.1	0.224	160.196	0	PA_without_intermediate	test	ward_and_allport	71	15.0	0.224	to_board	poldrack-single-stim	s524	False
160.201	1.0	2.0	160.2	0	PA_without_intermediate	test	ward_and_allport	-1	15.0	n/a	feedback	poldrack-single-stim	s524	False
162.206	2.626	2.626	164.832	1	PA_with_intermediate	test	ward_and_allport	82	16.0	2.626	to_hand	poldrack-single-stim	s524	False
164.834	0.1	0.229	165.063	0	PA_with_intermediate	test	ward_and_allport	89	16.0	0.229	to_board	poldrack-single-stim	s524	False
165.069	0.1	0.27	165.339	0	PA_with_intermediate	test	ward_and_allport	82	16.0	0.27	to_hand	poldrack-single-stim	s524	False
165.34	0.1	0.252	165.592	0	PA_with_intermediate	test	ward_and_allport	71	16.0	0.252	to_board	poldrack-single-stim	s524	False
165.598	0.1	0.23	165.828	0	PA_with_intermediate	test	ward_and_allport	89	16.0	0.23	to_hand	poldrack-single-stim	s524	False
165.829	0.1	0.21	166.039	0	PA_with_intermediate	test	ward_and_allport	71	16.0	0.21	to_board	poldrack-single-stim	s524	False
166.045	1.0	2.544	166.044	0	PA_with_intermediate	test	ward_and_allport	-1	16.0	n/a	feedback	poldrack-single-stim	s524	False
168.594	2.38	2.38	170.974	1	PA_without_intermediate	test	ward_and_allport	71	17.0	2.38	to_hand	poldrack-single-stim	s524	False
170.976	0.1	0.268	171.244	0	PA_without_intermediate	test	ward_and_allport	89	17.0	0.268	to_board	poldrack-single-stim	s524	False
171.249	0.1	0.249	171.498	0	PA_without_intermediate	test	ward_and_allport	71	17.0	0.249	to_hand	poldrack-single-stim	s524	False
171.5	0.1	0.29	171.79	0	PA_without_intermediate	test	ward_and_allport	82	17.0	0.29	to_board	poldrack-single-stim	s524	False
171.796	0.1	0.227	172.023	0	PA_without_intermediate	test	ward_and_allport	71	17.0	0.227	to_hand	poldrack-single-stim	s524	False
172.025	0.1	0.221	172.246	0	PA_without_intermediate	test	ward_and_allport	89	17.0	0.221	to_board	poldrack-single-stim	s524	False
172.251	1.0	2.272	172.25	0	PA_without_intermediate	test	ward_and_allport	-1	17.0	n/a	feedback	poldrack-single-stim	s524	False
174.53	3.009	3.009	177.539	1	PA_with_intermediate	test	ward_and_allport	71	18.0	3.009	to_hand	poldrack-single-stim	s524	False
177.54	0.1	0.25	177.79	0	PA_with_intermediate	test	ward_and_allport	89	18.0	0.25	to_board	poldrack-single-stim	s524	False
177.8	0.1	0.237	178.037	0	PA_with_intermediate	test	ward_and_allport	71	18.0	0.237	to_hand	poldrack-single-stim	s524	False
178.038	0.1	0.26	178.298	0	PA_with_intermediate	test	ward_and_allport	82	18.0	0.26	to_board	poldrack-single-stim	s524	False
178.306	0.1	0.227	178.533	0	PA_with_intermediate	test	ward_and_allport	89	18.0	0.227	to_hand	poldrack-single-stim	s524	False
178.534	0.1	0.254	178.788	0	PA_with_intermediate	test	ward_and_allport	82	18.0	0.254	to_board	poldrack-single-stim	s524	False
178.794	1.0	4.04	178.793	0	PA_with_intermediate	test	ward_and_allport	-1	18.0	n/a	feedback	poldrack-single-stim	s524	False
182.84	2.349	2.349	185.189	1	PA_with_intermediate	test	ward_and_allport	89	19.0	2.349	to_hand	poldrack-single-stim	s524	False
185.19	0.1	0.3	185.49	0	PA_with_intermediate	test	ward_and_allport	82	19.0	0.3	to_board	poldrack-single-stim	s524	False
185.497	0.1	0.291	185.788	0	PA_with_intermediate	test	ward_and_allport	89	19.0	0.291	to_hand	poldrack-single-stim	s524	False
185.789	0.1	0.254	186.043	0	PA_with_intermediate	test	ward_and_allport	71	19.0	0.254	to_board	poldrack-single-stim	s524	False
186.051	0.1	0.271	186.322	0	PA_with_intermediate	test	ward_and_allport	82	19.0	0.271	to_hand	poldrack-single-stim	s524	False
186.324	0.1	0.212	186.536	0	PA_with_intermediate	test	ward_and_allport	89	19.0	0.212	to_board	poldrack-single-stim	s524	False
186.544	1.0	2.272	186.543	0	PA_with_intermediate	test	ward_and_allport	-1	19.0	n/a	feedback	poldrack-single-stim	s524	False
188.823	2.086	2.086	190.909	1	PA_with_intermediate	test	ward_and_allport	89	20.0	2.086	to_hand	poldrack-single-stim	s524	False
190.91	0.1	0.261	191.171	0	PA_with_intermediate	test	ward_and_allport	82	20.0	0.261	to_board	poldrack-single-stim	s524	False
191.18	0.1	0.23	191.41	0	PA_with_intermediate	test	ward_and_allport	89	20.0	0.23	to_hand	poldrack-single-stim	s524	False
191.412	0.1	0.259	191.671	0	PA_with_intermediate	test	ward_and_allport	71	20.0	0.259	to_board	poldrack-single-stim	s524	False
191.676	0.1	2.56	194.236	0	PA_with_intermediate	test	ward_and_allport	82	20.0	2.56	to_hand	poldrack-single-stim	s524	False
194.237	0.1	0.15	194.387	0	PA_with_intermediate	test	ward_and_allport	89	20.0	0.15	to_board	poldrack-single-stim	s524	False
194.394	1.0	2.136	194.393	0	PA_with_intermediate	test	ward_and_allport	-1	20.0	n/a	feedback	poldrack-single-stim	s524	False
196.535	3.18	3.18	199.715	1	PA_with_intermediate	test	ward_and_allport	71	21.0	3.18	to_hand	poldrack-single-stim	s524	False
199.716	0.1	0.263	199.979	0	PA_with_intermediate	test	ward_and_allport	82	21.0	0.263	to_board	poldrack-single-stim	s524	False
199.987	0.1	0.248	200.235	0	PA_with_intermediate	test	ward_and_allport	71	21.0	0.248	to_hand	poldrack-single-stim	s524	False
200.235	0.1	0.25	200.485	0	PA_with_intermediate	test	ward_and_allport	89	21.0	0.25	to_board	poldrack-single-stim	s524	False
200.49	0.1	0.39	200.88	0	PA_with_intermediate	test	ward_and_allport	82	21.0	0.39	to_hand	poldrack-single-stim	s524	False
200.881	0.1	0.174	201.055	0	PA_with_intermediate	test	ward_and_allport	89	21.0	0.174	to_board	poldrack-single-stim	s524	False
201.063	1.0	2.0	201.062	0	PA_with_intermediate	test	ward_and_allport	-1	21.0	n/a	feedback	poldrack-single-stim	s524	False
203.07	4.51	4.51	207.58	1	PA_with_intermediate	test	ward_and_allport	89	22.0	4.51	to_hand	poldrack-single-stim	s524	False
207.581	0.1	0.246	207.827	0	PA_with_intermediate	test	ward_and_allport	71	22.0	0.246	to_board	poldrack-single-stim	s524	False
207.833	0.1	0.777	208.61	0	PA_with_intermediate	test	ward_and_allport	89	22.0	0.777	to_hand	poldrack-single-stim	s524	False
208.611	0.1	0.288	208.899	0	PA_with_intermediate	test	ward_and_allport	82	22.0	0.288	to_board	poldrack-single-stim	s524	False
208.906	0.1	0.319	209.225	0	PA_with_intermediate	test	ward_and_allport	71	22.0	0.319	to_hand	poldrack-single-stim	s524	False
209.226	0.1	0.286	209.512	0	PA_with_intermediate	test	ward_and_allport	82	22.0	0.286	to_board	poldrack-single-stim	s524	False
209.52	1.0	2.0	209.519	0	PA_with_intermediate	test	ward_and_allport	-1	22.0	n/a	feedback	poldrack-single-stim	s524	False
211.527	2.747	2.747	214.274	1	PA_without_intermediate	test	ward_and_allport	82	23.0	2.747	to_hand	poldrack-single-stim	s524	False
214.276	0.1	0.221	214.497	0	PA_without_intermediate	test	ward_and_allport	71	23.0	0.221	to_board	poldrack-single-stim	s524	False
214.505	0.1	0.279	214.784	0	PA_without_intermediate	test	ward_and_allport	82	23.0	0.279	to_hand	poldrack-single-stim	s524	False
214.785	0.1	0.328	215.113	0	PA_without_intermediate	test	ward_and_allport	71	23.0	0.328	to_board	poldrack-single-stim	s524	False
215.121	0.1	0.607	215.728	0	PA_without_intermediate	test	ward_and_allport	82	23.0	0.607	to_hand	poldrack-single-stim	s524	False
215.73	0.1	0.268	215.998	0	PA_without_intermediate	test	ward_and_allport	89	23.0	0.268	to_board	poldrack-single-stim	s524	False
216.007	1.0	2.408	216.006	0	PA_without_intermediate	test	ward_and_allport	-1	23.0	n/a	feedback	poldrack-single-stim	s524	False
218.423	2.88	2.88	221.303	1	PA_with_intermediate	test	ward_and_allport	89	24.0	2.88	to_hand	poldrack-single-stim	s524	False
221.305	0.1	0.279	221.584	0	PA_with_intermediate	test	ward_and_allport	82	24.0	0.279	to_board	poldrack-single-stim	s524	False
221.592	0.1	0.684	222.276	0	PA_with_intermediate	test	ward_and_allport	89	24.0	0.684	to_hand	poldrack-single-stim	s524	False
222.277	0.1	0.246	222.523	0	PA_with_intermediate	test	ward_and_allport	71	24.0	0.246	to_board	poldrack-single-stim	s524	False
222.532	0.1	0.439	222.971	0	PA_with_intermediate	test	ward_and_allport	82	24.0	0.439	to_hand	poldrack-single-stim	s524	False
222.972	0.1	0.19	223.162	0	PA_with_intermediate	test	ward_and_allport	71	24.0	0.19	to_board	poldrack-single-stim	s524	False
223.17	1.0	3.768	223.169	0	PA_with_intermediate	test	ward_and_allport	-1	24.0	n/a	feedback	poldrack-single-stim	s524	False
226.947	3.589	3.589	230.536	1	PA_with_intermediate	test	ward_and_allport	89	25.0	3.589	to_hand	poldrack-single-stim	s524	False
230.537	0.1	0.245	230.782	0	PA_with_intermediate	test	ward_and_allport	82	25.0	0.245	to_board	poldrack-single-stim	s524	False
230.79	0.1	0.788	231.578	0	PA_with_intermediate	test	ward_and_allport	89	25.0	0.788	to_hand	poldrack-single-stim	s524	False
231.578	0.1	0.234	231.812	0	PA_with_intermediate	test	ward_and_allport	71	25.0	0.234	to_board	poldrack-single-stim	s524	False
231.821	0.1	0.31	232.131	0	PA_with_intermediate	test	ward_and_allport	82	25.0	0.31	to_hand	poldrack-single-stim	s524	False
232.132	0.1	0.214	232.346	0	PA_with_intermediate	test	ward_and_allport	71	25.0	0.214	to_board	poldrack-single-stim	s524	False
232.354	1.0	2.68	232.353	0	PA_with_intermediate	test	ward_and_allport	-1	25.0	n/a	feedback	poldrack-single-stim	s524	False
235.043	1.712	1.712	236.755	1	PA_without_intermediate	test	ward_and_allport	82	26.0	1.712	to_hand	poldrack-single-stim	s524	False
236.756	0.1	0.202	236.958	0	PA_without_intermediate	test	ward_and_allport	89	26.0	0.202	to_board	poldrack-single-stim	s524	False
236.966	0.1	0.245	237.211	0	PA_without_intermediate	test	ward_and_allport	82	26.0	0.245	to_hand	poldrack-single-stim	s524	False
237.212	0.1	0.217	237.429	0	PA_without_intermediate	test	ward_and_allport	89	26.0	0.217	to_board	poldrack-single-stim	s524	False
237.438	0.1	0.418	237.856	0	PA_without_intermediate	test	ward_and_allport	82	26.0	0.418	to_hand	poldrack-single-stim	s524	False
237.857	0.1	0.242	238.099	0	PA_without_intermediate	test	ward_and_allport	71	26.0	0.242	to_board	poldrack-single-stim	s524	False
238.108	1.0	3.224	238.107	0	PA_without_intermediate	test	ward_and_allport	-1	26.0	n/a	feedback	poldrack-single-stim	s524	False
241.34	3.432	3.432	244.772	1	PA_without_intermediate	test	ward_and_allport	89	27.0	3.432	to_hand	poldrack-single-stim	s524	False
244.774	0.1	0.263	245.037	0	PA_without_intermediate	test	ward_and_allport	71	27.0	0.263	to_board	poldrack-single-stim	s524	False
245.046	0.1	0.251	245.297	0	PA_without_intermediate	test	ward_and_allport	89	27.0	0.251	to_hand	poldrack-single-stim	s524	False
245.298	0.1	0.261	245.559	0	PA_without_intermediate	test	ward_and_allport	82	27.0	0.261	to_board	poldrack-single-stim	s524	False
245.571	0.1	0.231	245.802	0	PA_without_intermediate	test	ward_and_allport	89	27.0	0.231	to_hand	poldrack-single-stim	s524	False
245.803	0.1	0.229	246.032	0	PA_without_intermediate	test	ward_and_allport	71	27.0	0.229	to_board	poldrack-single-stim	s524	False
246.041	1.0	3.36	246.04	0	PA_without_intermediate	test	ward_and_allport	-1	27.0	n/a	feedback	poldrack-single-stim	s524	False
249.409	2.726	2.726	252.135	1	PA_without_intermediate	test	ward_and_allport	71	28.0	2.726	to_hand	poldrack-single-stim	s524	False
252.137	0.1	0.274	252.411	0	PA_without_intermediate	test	ward_and_allport	82	28.0	0.274	to_board	poldrack-single-stim	s524	False
252.42	0.1	0.571	252.991	0	PA_without_intermediate	test	ward_and_allport	71	28.0	0.571	to_hand	poldrack-single-stim	s524	False
252.992	0.1	0.223	253.215	0	PA_without_intermediate	test	ward_and_allport	89	28.0	0.223	to_board	poldrack-single-stim	s524	False
253.223	0.1	0.201	253.424	0	PA_without_intermediate	test	ward_and_allport	71	28.0	0.201	to_hand	poldrack-single-stim	s524	False
253.425	0.1	0.228	253.653	0	PA_without_intermediate	test	ward_and_allport	82	28.0	0.228	to_board	poldrack-single-stim	s524	False
253.662	1.0	2.0	253.661	0	PA_without_intermediate	test	ward_and_allport	-1	28.0	n/a	feedback	poldrack-single-stim	s524	False
255.671	2.063	2.063	257.734	1	PA_without_intermediate	test	ward_and_allport	89	29.0	2.063	to_hand	poldrack-single-stim	s524	False
257.734	0.1	0.19	257.924	0	PA_without_intermediate	test	ward_and_allport	82	29.0	0.19	to_board	poldrack-single-stim	s524	False
257.933	0.1	0.194	258.127	0	PA_without_intermediate	test	ward_and_allport	89	29.0	0.194	to_hand	poldrack-single-stim	s524	False
258.128	0.1	0.194	258.322	0	PA_without_intermediate	test	ward_and_allport	71	29.0	0.194	to_board	poldrack-single-stim	s524	False
258.331	0.1	0.219	258.55	0	PA_without_intermediate	test	ward_and_allport	89	29.0	0.219	to_hand	poldrack-single-stim	s524	False
258.552	0.1	0.211	258.763	0	PA_without_intermediate	test	ward_and_allport	82	29.0	0.211	to_board	poldrack-single-stim	s524	False
258.772	1.0	2.408	258.771	0	PA_without_intermediate	test	ward_and_allport	-1	29.0	n/a	feedback	poldrack-single-stim	s524	False
266.188	2.388	2.388	268.576	1	PA_with_intermediate	test	ward_and_allport	82	30.0	2.388	to_hand	poldrack-single-stim	s524	False
268.577	0.1	0.159	268.736	0	PA_with_intermediate	test	ward_and_allport	89	30.0	0.159	to_board	poldrack-single-stim	s524	False
268.744	0.1	0.182	268.926	0	PA_with_intermediate	test	ward_and_allport	82	30.0	0.182	to_hand	poldrack-single-stim	s524	False
268.927	0.1	0.206	269.133	0	PA_with_intermediate	test	ward_and_allport	71	30.0	0.206	to_board	poldrack-single-stim	s524	False
269.144	0.1	0.168	269.312	0	PA_with_intermediate	test	ward_and_allport	89	30.0	0.168	to_hand	poldrack-single-stim	s524	False
269.313	0.1	0.193	269.506	0	PA_with_intermediate	test	ward_and_allport	71	30.0	0.193	to_board	poldrack-single-stim	s524	False
269.516	1.0	2.136	269.515	0	PA_with_intermediate	test	ward_and_allport	-1	30.0	n/a	feedback	poldrack-single-stim	s524	False
271.663	2.571	2.571	274.234	1	PA_without_intermediate	test	ward_and_allport	71	31.0	2.571	to_hand	poldrack-single-stim	s524	False
274.235	0.1	0.162	274.397	0	PA_without_intermediate	test	ward_and_allport	82	31.0	0.162	to_board	poldrack-single-stim	s524	False
274.406	0.1	0.16	274.566	0	PA_without_intermediate	test	ward_and_allport	71	31.0	0.16	to_hand	poldrack-single-stim	s524	False
274.567	0.1	0.206	274.773	0	PA_without_intermediate	test	ward_and_allport	82	31.0	0.206	to_board	poldrack-single-stim	s524	False
274.782	0.1	0.154	274.936	0	PA_without_intermediate	test	ward_and_allport	71	31.0	0.154	to_hand	poldrack-single-stim	s524	False
274.938	0.1	0.426	275.364	0	PA_without_intermediate	test	ward_and_allport	89	31.0	0.426	to_board	poldrack-single-stim	s524	False
275.375	1.0	5.128	275.374	0	PA_without_intermediate	test	ward_and_allport	-1	31.0	n/a	feedback	poldrack-single-stim	s524	False
280.513	2.137	2.137	282.65	1	PA_without_intermediate	test	ward_and_allport	71	32.0	2.137	to_hand	poldrack-single-stim	s524	False
282.651	0.1	0.152	282.803	0	PA_without_intermediate	test	ward_and_allport	89	32.0	0.152	to_board	poldrack-single-stim	s524	False
282.814	0.1	0.173	282.987	0	PA_without_intermediate	test	ward_and_allport	71	32.0	0.173	to_hand	poldrack-single-stim	s524	False
282.987	0.1	0.174	283.161	0	PA_without_intermediate	test	ward_and_allport	89	32.0	0.174	to_board	poldrack-single-stim	s524	False
283.172	0.1	0.148	283.32	0	PA_without_intermediate	test	ward_and_allport	71	32.0	0.148	to_hand	poldrack-single-stim	s524	False
283.321	0.1	0.205	283.526	0	PA_without_intermediate	test	ward_and_allport	82	32.0	0.205	to_board	poldrack-single-stim	s524	False
283.538	1.0	2.136	283.537	0	PA_without_intermediate	test	ward_and_allport	-1	32.0	n/a	feedback	poldrack-single-stim	s524	False
285.684	3.327	3.327	289.011	1	PA_without_intermediate	test	ward_and_allport	89	33.0	3.327	to_hand	poldrack-single-stim	s524	False
289.012	0.1	0.219	289.231	0	PA_without_intermediate	test	ward_and_allport	82	33.0	0.219	to_board	poldrack-single-stim	s524	False
289.238	0.1	0.181	289.419	0	PA_without_intermediate	test	ward_and_allport	89	33.0	0.181	to_hand	poldrack-single-stim	s524	False
289.42	0.1	0.227	289.647	0	PA_without_intermediate	test	ward_and_allport	82	33.0	0.227	to_board	poldrack-single-stim	s524	False
289.657	0.1	0.142	289.799	0	PA_without_intermediate	test	ward_and_allport	89	33.0	0.142	to_hand	poldrack-single-stim	s524	False
289.8	0.1	0.196	289.996	0	PA_without_intermediate	test	ward_and_allport	71	33.0	0.196	to_board	poldrack-single-stim	s524	False
290.008	1.0	5.264	290.007	0	PA_without_intermediate	test	ward_and_allport	-1	33.0	n/a	feedback	poldrack-single-stim	s524	False
295.284	2.162	2.162	297.446	1	PA_with_intermediate	test	ward_and_allport	71	34.0	2.162	to_hand	poldrack-single-stim	s524	False
297.447	0.1	0.211	297.658	0	PA_with_intermediate	test	ward_and_allport	82	34.0	0.211	to_board	poldrack-single-stim	s524	False
297.669	0.1	0.19	297.859	0	PA_with_intermediate	test	ward_and_allport	71	34.0	0.19	to_hand	poldrack-single-stim	s524	False
297.86	0.1	0.287	298.147	0	PA_with_intermediate	test	ward_and_allport	89	34.0	0.287	to_board	poldrack-single-stim	s524	False
298.159	0.1	0.471	298.63	0	PA_with_intermediate	test	ward_and_allport	82	34.0	0.471	to_hand	poldrack-single-stim	s524	False
298.631	0.1	0.231	298.862	0	PA_with_intermediate	test	ward_and_allport	71	34.0	0.231	to_board	poldrack-single-stim	s524	False
298.871	1.0	4.04	298.87	0	PA_with_intermediate	test	ward_and_allport	-1	34.0	n/a	feedback	poldrack-single-stim	s524	False
302.918	2.925	2.925	305.843	1	PA_with_intermediate	test	ward_and_allport	89	35.0	2.925	to_hand	poldrack-single-stim	s524	False
305.844	0.1	0.204	306.048	0	PA_with_intermediate	test	ward_and_allport	71	35.0	0.204	to_board	poldrack-single-stim	s524	False
306.059	0.1	0.192	306.251	0	PA_with_intermediate	test	ward_and_allport	89	35.0	0.192	to_hand	poldrack-single-stim	s524	False
306.253	0.1	0.261	306.514	0	PA_with_intermediate	test	ward_and_allport	82	35.0	0.261	to_board	poldrack-single-stim	s524	False
306.525	0.1	0.701	307.226	0	PA_with_intermediate	test	ward_and_allport	71	35.0	0.701	to_hand	poldrack-single-stim	s524	False
307.228	0.1	0.17	307.398	0	PA_with_intermediate	test	ward_and_allport	89	35.0	0.17	to_board	poldrack-single-stim	s524	False
307.409	1.0	2.136	307.408	0	PA_with_intermediate	test	ward_and_allport	-1	35.0	n/a	feedback	poldrack-single-stim	s524	False
309.556	3.618	3.618	313.174	1	PA_with_intermediate	test	ward_and_allport	82	36.0	3.618	to_hand	poldrack-single-stim	s524	False
313.175	0.1	0.175	313.35	0	PA_with_intermediate	test	ward_and_allport	71	36.0	0.175	to_board	poldrack-single-stim	s524	False
313.358	0.1	0.276	313.634	0	PA_with_intermediate	test	ward_and_allport	82	36.0	0.276	to_hand	poldrack-single-stim	s524	False
313.635	0.1	0.242	313.877	0	PA_with_intermediate	test	ward_and_allport	89	36.0	0.242	to_board	poldrack-single-stim	s524	False
313.886	0.1	0.228	314.114	0	PA_with_intermediate	test	ward_and_allport	71	36.0	0.228	to_hand	poldrack-single-stim	s524	False
314.115	0.1	0.185	314.3	0	PA_with_intermediate	test	ward_and_allport	89	36.0	0.185	to_board	poldrack-single-stim	s524	False
314.312	1.0	2.408	314.311	0	PA_with_intermediate	test	ward_and_allport	-1	36.0	n/a	feedback	poldrack-single-stim	s524	False
316.728	2.042	2.042	318.77	1	PA_without_intermediate	test	ward_and_allport	82	37.0	2.042	to_hand	poldrack-single-stim	s524	False
318.772	0.1	0.196	318.968	0	PA_without_intermediate	test	ward_and_allport	71	37.0	0.196	to_board	poldrack-single-stim	s524	False
318.976	0.1	0.242	319.218	0	PA_without_intermediate	test	ward_and_allport	82	37.0	0.242	to_hand	poldrack-single-stim	s524	False
319.22	0.1	0.263	319.483	0	PA_without_intermediate	test	ward_and_allport	71	37.0	0.263	to_board	poldrack-single-stim	s524	False
319.491	0.1	0.28	319.771	0	PA_without_intermediate	test	ward_and_allport	82	37.0	0.28	to_hand	poldrack-single-stim	s524	False
319.771	0.1	0.215	319.986	0	PA_without_intermediate	test	ward_and_allport	89	37.0	0.215	to_board	poldrack-single-stim	s524	False
319.994	1.0	2.68	319.993	0	PA_without_intermediate	test	ward_and_allport	-1	37.0	n/a	feedback	poldrack-single-stim	s524	False
322.682	2.509	2.509	325.191	1	PA_with_intermediate	test	ward_and_allport	89	38.0	2.509	to_hand	poldrack-single-stim	s524	False
325.192	0.1	0.186	325.378	0	PA_with_intermediate	test	ward_and_allport	71	38.0	0.186	to_board	poldrack-single-stim	s524	False
325.386	0.1	0.275	325.661	0	PA_with_intermediate	test	ward_and_allport	89	38.0	0.275	to_hand	poldrack-single-stim	s524	False
325.662	0.1	0.286	325.948	0	PA_with_intermediate	test	ward_and_allport	82	38.0	0.286	to_board	poldrack-single-stim	s524	False
325.958	0.1	1.862	327.82	0	PA_with_intermediate	test	ward_and_allport	71	38.0	1.862	to_hand	poldrack-single-stim	s524	False
327.821	0.1	0.191	328.012	0	PA_with_intermediate	test	ward_and_allport	82	38.0	0.191	to_board	poldrack-single-stim	s524	False
328.027	1.0	4.72	328.026	0	PA_with_intermediate	test	ward_and_allport	-1	38.0	n/a	feedback	poldrack-single-stim	s524	False
332.759	1.726	1.726	334.485	1	PA_without_intermediate	test	ward_and_allport	89	39.0	1.726	to_hand	poldrack-single-stim	s524	False
334.487	0.1	0.207	334.694	0	PA_without_intermediate	test	ward_and_allport	71	39.0	0.207	to_board	poldrack-single-stim	s524	False
334.706	0.1	0.253	334.959	0	PA_without_intermediate	test	ward_and_allport	89	39.0	0.253	to_hand	poldrack-single-stim	s524	False
334.96	0.1	0.218	335.178	0	PA_without_intermediate	test	ward_and_allport	71	39.0	0.218	to_board	poldrack-single-stim	s524	False
335.189	0.1	0.625	335.814	0	PA_without_intermediate	test	ward_and_allport	89	39.0	0.625	to_hand	poldrack-single-stim	s524	False
335.815	0.1	0.25	336.065	0	PA_without_intermediate	test	ward_and_allport	82	39.0	0.25	to_board	poldrack-single-stim	s524	False
336.074	1.0	3.224	336.073	0	PA_without_intermediate	test	ward_and_allport	-1	39.0	n/a	feedback	poldrack-single-stim	s524	False
339.306	2.414	2.414	341.72	1	PA_without_intermediate	test	ward_and_allport	89	40.0	2.414	to_hand	poldrack-single-stim	s524	False
341.72	0.1	0.229	341.949	0	PA_without_intermediate	test	ward_and_allport	82	40.0	0.229	to_board	poldrack-single-stim	s524	False
341.957	0.1	0.364	342.321	0	PA_without_intermediate	test	ward_and_allport	89	40.0	0.364	to_hand	poldrack-single-stim	s524	False
342.322	0.1	0.229	342.551	0	PA_without_intermediate	test	ward_and_allport	71	40.0	0.229	to_board	poldrack-single-stim	s524	False
342.562	0.1	0.237	342.799	0	PA_without_intermediate	test	ward_and_allport	89	40.0	0.237	to_hand	poldrack-single-stim	s524	False
342.801	0.1	0.237	343.038	0	PA_without_intermediate	test	ward_and_allport	82	40.0	0.237	to_board	poldrack-single-stim	s524	False
343.05	1.0	2.272	343.049	0	PA_without_intermediate	test	ward_and_allport	-1	40.0	n/a	feedback	poldrack-single-stim	s524	False
345.334	3.42	3.42	348.754	1	PA_with_intermediate	test	ward_and_allport	82	41.0	3.42	to_hand	poldrack-single-stim	s524	False
348.755	0.1	0.193	348.948	0	PA_with_intermediate	test	ward_and_allport	89	41.0	0.193	to_board	poldrack-single-stim	s524	False
348.959	0.1	0.454	349.413	0	PA_with_intermediate	test	ward_and_allport	89	41.0	0.454	to_hand	poldrack-single-stim	s524	False
349.414	0.1	0.848	350.262	0	PA_with_intermediate	test	ward_and_allport	89	41.0	0.848	to_board	poldrack-single-stim	s524	False
350.274	0.1	0.673	350.947	0	PA_with_intermediate	test	ward_and_allport	82	41.0	0.673	to_hand	poldrack-single-stim	s524	False
350.948	0.1	0.207	351.155	0	PA_with_intermediate	test	ward_and_allport	89	41.0	0.207	to_board	poldrack-single-stim	s524	False
351.164	0.1	1.632	352.796	0	PA_with_intermediate	test	ward_and_allport	89	41.0	1.632	to_hand	poldrack-single-stim	s524	False
352.798	0.1	0.138	352.936	0	PA_with_intermediate	test	ward_and_allport	71	41.0	0.138	to_board	poldrack-single-stim	s524	False
352.945	0.1	0.254	353.199	0	PA_with_intermediate	test	ward_and_allport	89	41.0	0.254	to_hand	poldrack-single-stim	s524	False
353.2	0.1	0.291	353.491	0	PA_with_intermediate	test	ward_and_allport	82	41.0	0.291	to_board	poldrack-single-stim	s524	False
353.499	1.0	3.632	353.498	0	PA_with_intermediate	test	ward_and_allport	-1	41.0	n/a	feedback	poldrack-single-stim	s524	False
357.143	2.528	2.528	359.671	1	PA_without_intermediate	test	ward_and_allport	71	42.0	2.528	to_hand	poldrack-single-stim	s524	False
359.673	0.1	0.216	359.889	0	PA_without_intermediate	test	ward_and_allport	82	42.0	0.216	to_board	poldrack-single-stim	s524	False
359.905	0.1	0.188	360.093	0	PA_without_intermediate	test	ward_and_allport	71	42.0	0.188	to_hand	poldrack-single-stim	s524	False
360.095	0.1	0.23	360.325	0	PA_without_intermediate	test	ward_and_allport	82	42.0	0.23	to_board	poldrack-single-stim	s524	False
360.338	0.1	0.157	360.495	0	PA_without_intermediate	test	ward_and_allport	71	42.0	0.157	to_hand	poldrack-single-stim	s524	False
360.496	0.1	0.376	360.872	0	PA_without_intermediate	test	ward_and_allport	89	42.0	0.376	to_board	poldrack-single-stim	s524	False
360.884	1.0	2.408	360.883	0	PA_without_intermediate	test	ward_and_allport	-1	42.0	n/a	feedback	poldrack-single-stim	s524	False
363.301	2.506	2.506	365.807	1	PA_without_intermediate	test	ward_and_allport	82	43.0	2.506	to_hand	poldrack-single-stim	s524	False
365.809	0.1	0.228	366.037	0	PA_without_intermediate	test	ward_and_allport	71	43.0	0.228	to_board	poldrack-single-stim	s524	False
366.046	0.1	0.266	366.312	0	PA_without_intermediate	test	ward_and_allport	82	43.0	0.266	to_hand	poldrack-single-stim	s524	False
366.313	0.1	0.238	366.551	0	PA_without_intermediate	test	ward_and_allport	89	43.0	0.238	to_board	poldrack-single-stim	s524	False
366.566	0.1	0.286	366.852	0	PA_without_intermediate	test	ward_and_allport	82	43.0	0.286	to_hand	poldrack-single-stim	s524	False
366.853	0.1	0.226	367.079	0	PA_without_intermediate	test	ward_and_allport	71	43.0	0.226	to_board	poldrack-single-stim	s524	False
367.091	1.0	2.0	367.09	0	PA_without_intermediate	test	ward_and_allport	-1	43.0	n/a	feedback	poldrack-single-stim	s524	False
369.1	3.426	3.426	372.526	1	PA_with_intermediate	test	ward_and_allport	82	44.0	3.426	to_hand	poldrack-single-stim	s524	False
372.527	0.1	0.201	372.728	0	PA_with_intermediate	test	ward_and_allport	89	44.0	0.201	to_board	poldrack-single-stim	s524	False
372.737	0.1	0.252	372.989	0	PA_with_intermediate	test	ward_and_allport	82	44.0	0.252	to_hand	poldrack-single-stim	s524	False
372.99	0.1	0.227	373.217	0	PA_with_intermediate	test	ward_and_allport	71	44.0	0.227	to_board	poldrack-single-stim	s524	False
373.228	0.1	0.171	373.399	0	PA_with_intermediate	test	ward_and_allport	89	44.0	0.171	to_hand	poldrack-single-stim	s524	False
373.399	0.1	0.297	373.696	0	PA_with_intermediate	test	ward_and_allport	82	44.0	0.297	to_board	poldrack-single-stim	s524	False
373.709	1.0	2.0	373.708	0	PA_with_intermediate	test	ward_and_allport	-1	44.0	n/a	feedback	poldrack-single-stim	s524	False
380.722	2.985	2.985	383.707	1	PA_with_intermediate	test	ward_and_allport	82	45.0	2.985	to_hand	poldrack-single-stim	s524	False
383.708	0.1	0.216	383.924	0	PA_with_intermediate	test	ward_and_allport	71	45.0	0.216	to_board	poldrack-single-stim	s524	False
383.937	0.1	0.264	384.201	0	PA_with_intermediate	test	ward_and_allport	82	45.0	0.264	to_hand	poldrack-single-stim	s524	False
384.203	0.1	0.253	384.456	0	PA_with_intermediate	test	ward_and_allport	89	45.0	0.253	to_board	poldrack-single-stim	s524	False
384.47	0.1	0.236	384.706	0	PA_with_intermediate	test	ward_and_allport	71	45.0	0.236	to_hand	poldrack-single-stim	s524	False
384.708	0.1	0.247	384.955	0	PA_with_intermediate	test	ward_and_allport	82	45.0	0.247	to_board	poldrack-single-stim	s524	False
384.969	1.0	2.0	384.968	0	PA_with_intermediate	test	ward_and_allport	-1	45.0	n/a	feedback	poldrack-single-stim	s524	False
386.98	2.317	2.317	389.297	1	PA_with_intermediate	test	ward_and_allport	82	46.0	2.317	to_hand	poldrack-single-stim	s524	False
389.298	0.1	0.245	389.543	0	PA_with_intermediate	test	ward_and_allport	71	46.0	0.245	to_board	poldrack-single-stim	s524	False
389.552	0.1	0.265	389.817	0	PA_with_intermediate	test	ward_and_allport	82	46.0	0.265	to_hand	poldrack-single-stim	s524	False
389.819	0.1	0.379	390.198	0	PA_with_intermediate	test	ward_and_allport	89	46.0	0.379	to_board	poldrack-single-stim	s524	False
390.209	0.1	0.687	390.896	0	PA_with_intermediate	test	ward_and_allport	71	46.0	0.687	to_hand	poldrack-single-stim	s524	False
390.898	0.1	0.21	391.108	0	PA_with_intermediate	test	ward_and_allport	82	46.0	0.21	to_board	poldrack-single-stim	s524	False
391.118	1.0	2.408	391.117	0	PA_with_intermediate	test	ward_and_allport	-1	46.0	n/a	feedback	poldrack-single-stim	s524	False
393.538	1.299	1.299	394.837	1	PA_without_intermediate	test	ward_and_allport	82	47.0	1.299	to_hand	poldrack-single-stim	s524	False
394.838	0.1	0.232	395.07	0	PA_without_intermediate	test	ward_and_allport	89	47.0	0.232	to_board	poldrack-single-stim	s524	False
395.082	0.1	0.328	395.41	0	PA_without_intermediate	test	ward_and_allport	82	47.0	0.328	to_hand	poldrack-single-stim	s524	False
395.411	0.1	0.288	395.699	0	PA_without_intermediate	test	ward_and_allport	71	47.0	0.288	to_board	poldrack-single-stim	s524	False
395.709	0.1	0.396	396.105	0	PA_without_intermediate	test	ward_and_allport	82	47.0	0.396	to_hand	poldrack-single-stim	s524	False
396.105	0.1	0.26	396.365	0	PA_without_intermediate	test	ward_and_allport	89	47.0	0.26	to_board	poldrack-single-stim	s524	False
396.377	1.0	2.816	396.376	0	PA_without_intermediate	test	ward_and_allport	-1	47.0	n/a	feedback	poldrack-single-stim	s524	False
