onset	duration	movement_onset	block_duration	condition	correct	correct_response	experiment_exp_id	key_press	response_time	trial_id	trial_type	worker_id	junk
4.506	1.5	5.975	1.772	AX	1.0	89.0	dot_pattern_expectancy	89.0	0.469	probe	AX	s627	False
8.781	1.5	10.15	1.5	AX	1.0	89.0	dot_pattern_expectancy	89.0	0.369	probe	AX	s627	False
12.785	1.5	14.306	2.452	AY	1.0	71.0	dot_pattern_expectancy	71.0	0.521	probe	AY	s627	False
17.74	1.5	19.211	1.772	AY	1.0	71.0	dot_pattern_expectancy	71.0	0.471	probe	AY	s627	False
22.015	1.5	23.357	1.908	AX	1.0	89.0	dot_pattern_expectancy	89.0	0.342	probe	AX	s627	False
26.426	1.5	27.8	1.908	AX	1.0	89.0	dot_pattern_expectancy	89.0	0.374	probe	AX	s627	False
30.838	1.5	32.184	2.588	AX	1.0	89.0	dot_pattern_expectancy	89.0	0.346	probe	AX	s627	False
35.93	1.5	37.465	1.5	AY	1.0	71.0	dot_pattern_expectancy	71.0	0.535	probe	AY	s627	False
39.933	1.5	41.246	1.5	BY	1.0	71.0	dot_pattern_expectancy	71.0	0.313	probe	BY	s627	False
43.936	1.5	45.307	1.5	BY	1.0	71.0	dot_pattern_expectancy	71.0	0.371	probe	BY	s627	False
47.94	1.5	49.387	1.636	AX	1.0	89.0	dot_pattern_expectancy	89.0	0.447	probe	AX	s627	False
52.079	1.5	53.409	2.044	BX	1.0	71.0	dot_pattern_expectancy	71.0	0.33	probe	BX	s627	False
56.628	1.5	58.089	1.772	AX	1.0	89.0	dot_pattern_expectancy	89.0	0.461	probe	AX	s627	False
60.903	1.5	62.207	2.588	BX	1.0	71.0	dot_pattern_expectancy	71.0	0.304	probe	BX	s627	False
65.994	1.5	67.611	1.5	AY	1.0	71.0	dot_pattern_expectancy	71.0	0.617	probe	AY	s627	False
69.998	1.5	71.354	2.452	AX	1.0	89.0	dot_pattern_expectancy	89.0	0.356	probe	AX	s627	False
74.954	1.5	76.184	1.636	BY	1.0	71.0	dot_pattern_expectancy	71.0	0.23	probe	BY	s627	False
79.093	1.5	80.434	1.636	AX	1.0	89.0	dot_pattern_expectancy	89.0	0.341	probe	AX	s627	False
83.232	1.5	84.617	1.5	AX	1.0	89.0	dot_pattern_expectancy	89.0	0.385	probe	AX	s627	False
87.236	1.5	88.53	1.636	BY	1.0	71.0	dot_pattern_expectancy	71.0	0.294	probe	BY	s627	False
91.377	1.5	92.766	1.5	AX	1.0	89.0	dot_pattern_expectancy	89.0	0.389	probe	AX	s627	False
95.38	1.5	96.843	2.18	AY	1.0	71.0	dot_pattern_expectancy	71.0	0.463	probe	AY	s627	False
100.064	1.5	101.445	1.5	AX	1.0	89.0	dot_pattern_expectancy	89.0	0.381	probe	AX	s627	False
104.067	1.5	106.849	1.908	AX	0.0	89.0	dot_pattern_expectancy	71.0	1.782	probe	AX	s627	False
108.478	1.5	109.934	1.636	BY	1.0	71.0	dot_pattern_expectancy	71.0	0.456	probe	BY	s627	False
112.618	1.5	113.986	1.636	BY	1.0	71.0	dot_pattern_expectancy	71.0	0.368	probe	BY	s627	False
116.758	1.5	118.106	1.636	AX	1.0	89.0	dot_pattern_expectancy	89.0	0.348	probe	AX	s627	False
120.897	1.5	122.265	1.5	AX	1.0	89.0	dot_pattern_expectancy	89.0	0.368	probe	AX	s627	False
124.9	1.5	126.233	2.044	BY	1.0	71.0	dot_pattern_expectancy	71.0	0.333	probe	BY	s627	False
129.448	1.5	130.962	2.18	AY	1.0	71.0	dot_pattern_expectancy	71.0	0.514	probe	AY	s627	False
134.132	1.5	135.601	1.636	AY	1.0	71.0	dot_pattern_expectancy	71.0	0.469	probe	AY	s627	False
138.272	1.5	139.774	1.772	AY	1.0	71.0	dot_pattern_expectancy	71.0	0.502	probe	AY	s627	False
142.547	1.5	143.905	1.5	BY	1.0	71.0	dot_pattern_expectancy	71.0	0.358	probe	BY	s627	False
146.55	1.5	147.89	1.908	BX	1.0	71.0	dot_pattern_expectancy	71.0	0.34	probe	BX	s627	False
150.961	1.5	152.326	2.044	AX	1.0	89.0	dot_pattern_expectancy	89.0	0.365	probe	AX	s627	False
155.509	1.5	156.893	1.636	AX	1.0	89.0	dot_pattern_expectancy	89.0	0.384	probe	AX	s627	False
159.648	1.5	161.038	1.772	AX	1.0	89.0	dot_pattern_expectancy	89.0	0.39	probe	AX	s627	False
163.924	1.5	165.266	1.636	AX	1.0	89.0	dot_pattern_expectancy	89.0	0.342	probe	AX	s627	False
168.063	1.5	169.316	1.772	BX	1.0	71.0	dot_pattern_expectancy	71.0	0.253	probe	BX	s627	False
172.339	1.5	173.732	1.5	AX	1.0	89.0	dot_pattern_expectancy	89.0	0.393	probe	AX	s627	False
186.845	1.5	188.127	1.636	BY	1.0	71.0	dot_pattern_expectancy	71.0	0.282	probe	BY	s627	False
190.984	1.5	192.461	1.5	AY	1.0	71.0	dot_pattern_expectancy	71.0	0.477	probe	AY	s627	False
194.988	1.5	196.335	2.044	AX	1.0	89.0	dot_pattern_expectancy	89.0	0.347	probe	AX	s627	False
199.535	1.5	200.854	1.772	BY	1.0	71.0	dot_pattern_expectancy	71.0	0.319	probe	BY	s627	False
203.81	1.5	205.12	1.636	BX	1.0	71.0	dot_pattern_expectancy	71.0	0.31	probe	BX	s627	False
207.95	1.5	209.302	1.636	AX	1.0	89.0	dot_pattern_expectancy	89.0	0.352	probe	AX	s627	False
212.089	1.5	213.425	1.5	AX	1.0	89.0	dot_pattern_expectancy	89.0	0.336	probe	AX	s627	False
216.092	1.5	217.502	1.5	AX	1.0	89.0	dot_pattern_expectancy	89.0	0.41	probe	AX	s627	False
220.095	1.5	221.575	2.044	AY	1.0	71.0	dot_pattern_expectancy	71.0	0.48	probe	AY	s627	False
224.643	1.5	226.113	2.452	AX	1.0	89.0	dot_pattern_expectancy	89.0	0.47	probe	AX	s627	False
229.599	1.5	230.993	1.908	AX	1.0	89.0	dot_pattern_expectancy	89.0	0.394	probe	AX	s627	False
234.01	1.5	235.443	1.5	AX	1.0	89.0	dot_pattern_expectancy	89.0	0.433	probe	AX	s627	False
238.014	1.5	239.389	1.908	AX	1.0	89.0	dot_pattern_expectancy	89.0	0.375	probe	AX	s627	False
242.425	1.5	243.749	2.18	BX	1.0	71.0	dot_pattern_expectancy	71.0	0.324	probe	BX	s627	False
247.108	1.5	248.456	1.5	AX	1.0	89.0	dot_pattern_expectancy	89.0	0.348	probe	AX	s627	False
251.112	1.5	252.436	1.908	BY	1.0	71.0	dot_pattern_expectancy	71.0	0.324	probe	BY	s627	False
255.524	1.5	256.896	2.316	BX	1.0	71.0	dot_pattern_expectancy	71.0	0.372	probe	BX	s627	False
260.344	1.5	261.822	2.316	AY	1.0	71.0	dot_pattern_expectancy	71.0	0.478	probe	AY	s627	False
265.164	1.5	266.499	1.636	BX	1.0	71.0	dot_pattern_expectancy	71.0	0.335	probe	BX	s627	False
269.304	1.5	270.793	1.5	AY	1.0	71.0	dot_pattern_expectancy	71.0	0.489	probe	AY	s627	False
273.307	1.5	274.638	1.908	BY	1.0	71.0	dot_pattern_expectancy	71.0	0.331	probe	BY	s627	False
277.718	1.5	279.069	1.5	AX	1.0	89.0	dot_pattern_expectancy	89.0	0.351	probe	AX	s627	False
281.721	1.5	283.216	2.316	AY	1.0	71.0	dot_pattern_expectancy	71.0	0.495	probe	AY	s627	False
286.541	1.5	288.037	1.5	AX	1.0	89.0	dot_pattern_expectancy	89.0	0.496	probe	AX	s627	False
290.544	1.5	291.991	2.724	AY	1.0	71.0	dot_pattern_expectancy	71.0	0.447	probe	AY	s627	False
295.772	1.5	297.222	1.5	AX	1.0	89.0	dot_pattern_expectancy	89.0	0.45	probe	AX	s627	False
299.776	1.5	301.372	1.636	AX	1.0	89.0	dot_pattern_expectancy	89.0	0.596	probe	AX	s627	False
303.915	1.5	305.246	1.636	AX	1.0	89.0	dot_pattern_expectancy	89.0	0.331	probe	AX	s627	False
308.054	1.5	309.415	1.772	AX	1.0	89.0	dot_pattern_expectancy	89.0	0.361	probe	AX	s627	False
312.329	1.5	313.627	1.772	BY	1.0	71.0	dot_pattern_expectancy	71.0	0.298	probe	BY	s627	False
316.605	1.5	318.087	1.5	AX	1.0	89.0	dot_pattern_expectancy	89.0	0.482	probe	AX	s627	False
320.61	1.5	321.97	2.452	BY	1.0	71.0	dot_pattern_expectancy	71.0	0.36	probe	BY	s627	False
325.565	1.5	326.964	1.636	AX	1.0	89.0	dot_pattern_expectancy	89.0	0.399	probe	AX	s627	False
329.704	1.5	331.104	1.636	AX	1.0	89.0	dot_pattern_expectancy	89.0	0.4	probe	AX	s627	False
333.844	1.5	335.156	1.5	BX	1.0	71.0	dot_pattern_expectancy	71.0	0.312	probe	BX	s627	False
337.847	1.5	339.268	1.5	BX	1.0	71.0	dot_pattern_expectancy	71.0	0.421	probe	BX	s627	False
341.851	1.5	343.164	2.316	AX	1.0	89.0	dot_pattern_expectancy	89.0	0.313	probe	AX	s627	False
346.671	1.5	348.143	2.044	AY	1.0	71.0	dot_pattern_expectancy	71.0	0.472	probe	AY	s627	False
351.218	1.5	352.592	3.948	AX	1.0	89.0	dot_pattern_expectancy	89.0	0.374	probe	AX	s627	False
357.67	1.5	359.29	1.636	AX	1.0	89.0	dot_pattern_expectancy	89.0	0.62	probe	AX	s627	False
372.313	1.5	373.828	1.636	AY	1.0	71.0	dot_pattern_expectancy	71.0	0.515	probe	AY	s627	False
376.452	1.5	377.85	1.636	AX	1.0	89.0	dot_pattern_expectancy	89.0	0.398	probe	AX	s627	False
380.593	1.5	381.988	1.5	AX	1.0	89.0	dot_pattern_expectancy	89.0	0.395	probe	AX	s627	False
384.596	1.5	385.972	1.5	AX	1.0	89.0	dot_pattern_expectancy	89.0	0.376	probe	AX	s627	False
388.6	1.5	390.002	1.908	AX	1.0	89.0	dot_pattern_expectancy	89.0	0.402	probe	AX	s627	False
393.012	1.5	394.422	1.636	BX	1.0	71.0	dot_pattern_expectancy	71.0	0.41	probe	BX	s627	False
397.152	1.5	398.569	2.044	AX	1.0	89.0	dot_pattern_expectancy	89.0	0.417	probe	AX	s627	False
401.7	1.5	403.11	1.772	AX	1.0	89.0	dot_pattern_expectancy	89.0	0.41	probe	AX	s627	False
405.976	1.5	407.455	1.5	AX	1.0	89.0	dot_pattern_expectancy	89.0	0.479	probe	AX	s627	False
409.98	1.5	411.515	2.18	AX	1.0	89.0	dot_pattern_expectancy	89.0	0.535	probe	AX	s627	False
414.663	1.5	416.226	1.5	AX	1.0	89.0	dot_pattern_expectancy	89.0	0.563	probe	AX	s627	False
418.666	1.5	420.112	3.676	BX	1.0	71.0	dot_pattern_expectancy	71.0	0.446	probe	BX	s627	False
424.846	1.5	426.205	1.636	BY	1.0	71.0	dot_pattern_expectancy	71.0	0.359	probe	BY	s627	False
428.985	1.5	430.445	1.636	BY	1.0	71.0	dot_pattern_expectancy	71.0	0.46	probe	BY	s627	False
433.125	1.5	434.72	1.5	BX	1.0	71.0	dot_pattern_expectancy	71.0	0.595	probe	BX	s627	False
437.128	1.5	438.478	1.908	AX	1.0	89.0	dot_pattern_expectancy	89.0	0.35	probe	AX	s627	False
441.539	1.5	442.88	1.636	AX	1.0	89.0	dot_pattern_expectancy	89.0	0.341	probe	AX	s627	False
445.68	1.5	446.962	1.5	BX	1.0	71.0	dot_pattern_expectancy	71.0	0.282	probe	BX	s627	False
449.683	1.5	451.02	1.908	AX	1.0	89.0	dot_pattern_expectancy	89.0	0.337	probe	AX	s627	False
454.094	1.5	455.426	2.18	BY	1.0	71.0	dot_pattern_expectancy	71.0	0.332	probe	BY	s627	False
458.779	1.5	460.193	1.772	AX	1.0	89.0	dot_pattern_expectancy	89.0	0.414	probe	AX	s627	False
463.054	1.5	464.542	1.5	AX	1.0	89.0	dot_pattern_expectancy	89.0	0.488	probe	AX	s627	False
467.057	1.5	468.415	1.5	AX	1.0	89.0	dot_pattern_expectancy	89.0	0.358	probe	AX	s627	False
471.06	1.5	472.579	2.044	AX	1.0	89.0	dot_pattern_expectancy	89.0	0.519	probe	AX	s627	False
475.608	1.5	477.213	2.86	AX	1.0	89.0	dot_pattern_expectancy	89.0	0.605	probe	AX	s627	False
480.972	1.5	482.277	1.5	BX	1.0	71.0	dot_pattern_expectancy	71.0	0.305	probe	BX	s627	False
484.975	1.5	486.36	1.772	BY	1.0	71.0	dot_pattern_expectancy	71.0	0.385	probe	BY	s627	False
489.251	1.5	491.152	1.772	AX	1.0	89.0	dot_pattern_expectancy	89.0	0.901	probe	AX	s627	False
493.526	1.5	495.675	2.86	AX	0.0	89.0	dot_pattern_expectancy	71.0	1.149	probe	AX	s627	False
498.89	1.5	500.25	1.772	AX	1.0	89.0	dot_pattern_expectancy	89.0	0.36	probe	AX	s627	False
503.166	1.5	504.426	1.636	BX	1.0	71.0	dot_pattern_expectancy	71.0	0.26	probe	BX	s627	False
507.305	1.5	508.589	2.452	BX	1.0	71.0	dot_pattern_expectancy	71.0	0.284	probe	BX	s627	False
512.261	1.5	513.593	1.636	AX	1.0	89.0	dot_pattern_expectancy	89.0	0.332	probe	AX	s627	False
516.4	1.5	517.694	1.5	BX	1.0	71.0	dot_pattern_expectancy	71.0	0.294	probe	BX	s627	False
520.404	1.5	521.716	1.636	AX	1.0	89.0	dot_pattern_expectancy	89.0	0.312	probe	AX	s627	False
524.543	1.5	525.898	1.636	AX	1.0	89.0	dot_pattern_expectancy	89.0	0.355	probe	AX	s627	False
528.682	1.5	529.989	2.18	BY	1.0	71.0	dot_pattern_expectancy	71.0	0.307	probe	BY	s627	False
533.366	1.5	534.686	1.5	AX	1.0	89.0	dot_pattern_expectancy	89.0	0.32	probe	AX	s627	False
537.37	1.5	538.905	1.636	AY	1.0	71.0	dot_pattern_expectancy	71.0	0.535	probe	AY	s627	False
541.509	1.5	542.866	1.636	AX	1.0	89.0	dot_pattern_expectancy	89.0	0.357	probe	AX	s627	False
556.151	1.5	557.541	2.18	AX	1.0	89.0	dot_pattern_expectancy	89.0	0.39	probe	AX	s627	False
560.834	1.5	562.352	2.316	AY	1.0	71.0	dot_pattern_expectancy	71.0	0.518	probe	AY	s627	False
565.653	1.5	567.235	1.636	AY	1.0	71.0	dot_pattern_expectancy	71.0	0.582	probe	AY	s627	False
569.793	1.5	571.616	1.908	BX	1.0	71.0	dot_pattern_expectancy	71.0	0.823	probe	BX	s627	False
574.205	1.5	575.662	3.54	AX	0.0	89.0	dot_pattern_expectancy	71.0	0.457	probe	AX	s627	False
580.248	1.5	581.556	1.636	BX	1.0	71.0	dot_pattern_expectancy	71.0	0.308	probe	BX	s627	False
584.388	1.5	585.752	1.5	BY	1.0	71.0	dot_pattern_expectancy	71.0	0.364	probe	BY	s627	False
588.392	1.5	589.718	1.5	AX	1.0	89.0	dot_pattern_expectancy	89.0	0.326	probe	AX	s627	False
592.396	1.5	593.746	1.772	AX	1.0	89.0	dot_pattern_expectancy	89.0	0.35	probe	AX	s627	False
596.671	1.5	598.03	2.452	BY	1.0	71.0	dot_pattern_expectancy	71.0	0.359	probe	BY	s627	False
601.627	1.5	602.968	1.908	AX	1.0	89.0	dot_pattern_expectancy	89.0	0.341	probe	AX	s627	False
606.039	1.5	607.345	1.636	BX	1.0	71.0	dot_pattern_expectancy	71.0	0.306	probe	BX	s627	False
610.178	1.5	611.528	1.5	AX	1.0	89.0	dot_pattern_expectancy	89.0	0.35	probe	AX	s627	False
614.181	1.5	615.521	1.636	AX	1.0	89.0	dot_pattern_expectancy	89.0	0.34	probe	AX	s627	False
618.321	1.5	619.662	1.636	AX	1.0	89.0	dot_pattern_expectancy	89.0	0.341	probe	AX	s627	False
622.46	1.5	623.741	2.452	BY	1.0	71.0	dot_pattern_expectancy	71.0	0.281	probe	BY	s627	False
627.416	1.5	628.792	1.5	AX	1.0	89.0	dot_pattern_expectancy	89.0	0.376	probe	AX	s627	False
631.42	1.5	632.794	1.5	BY	1.0	71.0	dot_pattern_expectancy	71.0	0.374	probe	BY	s627	False
635.423	1.5	636.879	1.636	AX	1.0	89.0	dot_pattern_expectancy	89.0	0.456	probe	AX	s627	False
639.563	1.5	640.882	1.636	AX	1.0	89.0	dot_pattern_expectancy	89.0	0.319	probe	AX	s627	False
643.702	1.5	645.293	1.636	AY	1.0	71.0	dot_pattern_expectancy	71.0	0.591	probe	AY	s627	False
647.842	1.5	649.169	1.5	AX	1.0	89.0	dot_pattern_expectancy	89.0	0.327	probe	AX	s627	False
651.845	1.5	653.246	1.5	AX	1.0	89.0	dot_pattern_expectancy	89.0	0.401	probe	AX	s627	False
655.849	1.5	657.216	1.772	AX	1.0	89.0	dot_pattern_expectancy	89.0	0.367	probe	AX	s627	False
660.125	1.5	661.573	2.18	AX	1.0	89.0	dot_pattern_expectancy	89.0	0.448	probe	AX	s627	False
664.808	1.5	666.136	1.772	BX	1.0	71.0	dot_pattern_expectancy	71.0	0.328	probe	BX	s627	False
669.085	1.5	670.39	1.5	BY	1.0	71.0	dot_pattern_expectancy	71.0	0.305	probe	BY	s627	False
673.088	1.5	674.415	1.5	AX	1.0	89.0	dot_pattern_expectancy	89.0	0.327	probe	AX	s627	False
677.092	1.5	678.458	1.636	AX	1.0	89.0	dot_pattern_expectancy	89.0	0.366	probe	AX	s627	False
681.231	1.5	682.726	2.18	AY	1.0	71.0	dot_pattern_expectancy	71.0	0.495	probe	AY	s627	False
685.915	1.5	687.513	2.316	AY	1.0	71.0	dot_pattern_expectancy	71.0	0.598	probe	AY	s627	False
690.734	1.5	692.116	1.636	BX	1.0	71.0	dot_pattern_expectancy	71.0	0.382	probe	BX	s627	False
694.874	1.5	696.159	2.18	BX	1.0	71.0	dot_pattern_expectancy	71.0	0.285	probe	BX	s627	False
699.558	1.5	701.058	2.044	AY	1.0	71.0	dot_pattern_expectancy	71.0	0.5	probe	AY	s627	False
704.105	1.5	705.455	1.772	AX	1.0	89.0	dot_pattern_expectancy	89.0	0.35	probe	AX	s627	False
708.38	1.5	709.715	1.5	AX	1.0	89.0	dot_pattern_expectancy	89.0	0.335	probe	AX	s627	False
712.384	1.5	713.715	2.18	AX	1.0	89.0	dot_pattern_expectancy	89.0	0.331	probe	AX	s627	False
717.068	1.5	718.581	2.452	AY	1.0	71.0	dot_pattern_expectancy	71.0	0.513	probe	AY	s627	False
722.024	1.5	723.385	1.636	AX	1.0	89.0	dot_pattern_expectancy	89.0	0.361	probe	AX	s627	False
726.163	1.5	727.565	1.908	AX	1.0	89.0	dot_pattern_expectancy	89.0	0.402	probe	AX	s627	False
