onset	duration	correct	correct_response	cue	experiment_exp_id	flanker_location	flanker_middle_direction	flanker_type	key_press	response_time	worker_id
3.521	1.7	1.0	89.0	spatial	attention_network_task	up	left	incongruent	89	0.785	s373
6.129	1.7	1.0	71.0	spatial	attention_network_task	up	right	incongruent	71	0.689	s373
8.736863999999999	1.7	1.0	89.0	spatial	attention_network_task	down	left	congruent	89	0.673	s373
11.344728	1.7	1.0	71.0	spatial	attention_network_task	up	right	congruent	71	0.562	s373
13.952592000000001	1.7	1.0	89.0	double	attention_network_task	down	left	incongruent	89	0.713	s373
16.566	1.7	1.0	89.0	double	attention_network_task	up	left	congruent	89	0.727	s373
19.174864000000003	1.7	1.0	89.0	double	attention_network_task	down	left	congruent	89	0.595	s373
21.784864000000002	1.7	1.0	71.0	spatial	attention_network_task	down	right	congruent	71	0.517	s373
24.396	1.7	1.0	89.0	double	attention_network_task	up	left	congruent	89	0.567	s373
27.004592	1.7	1.0	89.0	double	attention_network_task	down	left	incongruent	89	0.757	s373
29.611455999999997	1.7	1.0	71.0	spatial	attention_network_task	up	right	congruent	71	0.642	s373
32.225864	1.7	1.0	89.0	spatial	attention_network_task	up	left	congruent	89	0.748	s373
34.833864	1.7	1.0	89.0	spatial	attention_network_task	down	left	congruent	89	0.616	s373
37.442	1.7	1.0	89.0	spatial	attention_network_task	up	left	incongruent	89	0.567	s373
40.05	1.7	1.0	71.0	double	attention_network_task	up	right	congruent	71	0.609	s373
42.658864	1.7	1.0	71.0	double	attention_network_task	down	right	congruent	71	0.693	s373
45.267	1.7	1.0	89.0	double	attention_network_task	up	left	congruent	89	0.64	s373
47.879864000000005	1.7	1.0	71.0	double	attention_network_task	down	right	congruent	71	0.837	s373
50.493	1.7	1.0	89.0	double	attention_network_task	up	left	congruent	89	1.26	s373
53.101592	1.7	1.0	71.0	spatial	attention_network_task	up	right	congruent	71	0.475	s373
55.71	1.7	1.0	71.0	spatial	attention_network_task	up	right	incongruent	71	0.484	s373
58.317184000000005	1.7	1.0	89.0	double	attention_network_task	up	left	incongruent	89	0.531	s373
60.92532	1.7	1.0	89.0	spatial	attention_network_task	down	left	congruent	89	0.501	s373
63.537	1.7	1.0	89.0	spatial	attention_network_task	down	left	congruent	89	0.593	s373
66.150864	1.7	1.0	89.0	spatial	attention_network_task	up	left	congruent	89	0.523	s373
68.760864	1.7	1.0	89.0	double	attention_network_task	down	left	incongruent	89	0.532	s373
71.368864	1.7	1.0	89.0	double	attention_network_task	down	left	incongruent	89	0.571	s373
73.977	1.7	1.0	89.0	double	attention_network_task	up	left	incongruent	89	0.736	s373
76.590864	1.7	1.0	71.0	spatial	attention_network_task	down	right	incongruent	71	0.73	s373
79.203048	1.7	1.0	89.0	spatial	attention_network_task	up	left	incongruent	89	0.684	s373
81.811864	1.7	1.0	71.0	double	attention_network_task	up	right	incongruent	71	0.56	s373
84.41959200000001	1.7	1.0	89.0	double	attention_network_task	down	left	incongruent	89	0.717	s373
87.028048	1.7	1.0	71.0	spatial	attention_network_task	up	right	incongruent	71	0.445	s373
89.636864	1.7	1.0	71.0	double	attention_network_task	up	right	incongruent	71	0.473	s373
92.24472800000001	1.7	1.0	89.0	double	attention_network_task	up	left	incongruent	89	0.563	s373
94.852728	1.7	1.0	71.0	double	attention_network_task	down	right	incongruent	71	0.645	s373
97.461	1.7	1.0	71.0	double	attention_network_task	up	right	congruent	71	0.574	s373
100.069	1.7	1.0	89.0	spatial	attention_network_task	down	left	incongruent	89	0.693	s373
102.682728	1.7	1.0	71.0	spatial	attention_network_task	up	right	congruent	71	0.566	s373
105.291	1.7	1.0	89.0	spatial	attention_network_task	up	left	congruent	89	0.712	s373
107.899	1.7	1.0	89.0	spatial	attention_network_task	down	left	incongruent	89	0.806	s373
110.50672800000001	1.7	1.0	71.0	double	attention_network_task	down	right	congruent	71	0.576	s373
113.115	1.7	1.0	89.0	spatial	attention_network_task	up	left	incongruent	89	0.579	s373
115.722864	1.7	1.0	71.0	spatial	attention_network_task	up	right	congruent	71	0.513	s373
118.33072800000001	1.7	1.0	89.0	spatial	attention_network_task	up	left	congruent	89	0.471	s373
120.945	1.7	1.0	71.0	spatial	attention_network_task	up	right	congruent	71	0.445	s373
123.553	1.7	1.0	71.0	double	attention_network_task	up	right	incongruent	71	0.457	s373
126.161	1.7	1.0	89.0	double	attention_network_task	down	left	congruent	89	0.661	s373
128.769	1.7	1.0	89.0	spatial	attention_network_task	down	left	incongruent	89	0.679	s373
131.377	1.7	1.0	89.0	double	attention_network_task	up	left	congruent	89	0.551	s373
133.985	1.7	1.0	71.0	spatial	attention_network_task	down	right	incongruent	71	0.503	s373
136.593728	1.7	1.0	89.0	double	attention_network_task	down	left	congruent	89	0.589	s373
139.201864	1.7	1.0	71.0	double	attention_network_task	down	right	incongruent	71	0.679	s373
141.81391200000002	1.7	1.0	71.0	double	attention_network_task	down	right	incongruent	71	0.442	s373
144.422728	1.7	1.0	71.0	spatial	attention_network_task	down	right	congruent	71	0.48	s373
147.031864	1.7	1.0	71.0	spatial	attention_network_task	down	right	congruent	71	0.528	s373
149.639864	1.7	1.0	89.0	double	attention_network_task	up	left	congruent	89	0.59	s373
152.248	1.7	1.0	71.0	double	attention_network_task	up	right	congruent	71	0.516	s373
154.861	1.7	1.0	71.0	spatial	attention_network_task	down	right	incongruent	71	0.571	s373
157.469	1.7	1.0	71.0	spatial	attention_network_task	down	right	congruent	71	0.452	s373
160.08	1.7	1.0	71.0	double	attention_network_task	down	right	incongruent	71	0.443	s373
162.690864	1.7	1.0	89.0	spatial	attention_network_task	down	left	incongruent	89	0.495	s373
165.298728	1.7	1.0	71.0	double	attention_network_task	up	right	incongruent	71	0.787	s373
167.906864	1.7	1.0	71.0	spatial	attention_network_task	down	right	congruent	71	0.512	s373
181.027864	1.7	1.0	71.0	double	attention_network_task	up	right	congruent	71	0.456	s373
183.636	1.7	1.0	89.0	double	attention_network_task	up	left	incongruent	89	0.47	s373
186.244	1.7	1.0	71.0	spatial	attention_network_task	down	right	congruent	71	0.644	s373
188.851592	1.7	1.0	89.0	double	attention_network_task	up	left	congruent	89	0.59	s373
191.46545600000002	1.7	1.0	71.0	double	attention_network_task	down	right	congruent	71	0.577	s373
194.073592	1.7	1.0	71.0	spatial	attention_network_task	up	right	incongruent	71	0.751	s373
196.682	1.7	1.0	89.0	spatial	attention_network_task	down	left	congruent	89	0.677	s373
199.289592	1.7	1.0	71.0	double	attention_network_task	down	right	congruent	71	0.522	s373
201.903	1.7	1.0	71.0	spatial	attention_network_task	down	right	congruent	71	0.508	s373
204.511592	1.7	1.0	71.0	spatial	attention_network_task	up	right	congruent	71	0.618	s373
207.12	1.7	1.0	89.0	spatial	attention_network_task	down	left	incongruent	89	0.668	s373
209.733	1.7	1.0	89.0	spatial	attention_network_task	down	left	incongruent	89	0.6	s373
212.34059200000002	1.7	1.0	89.0	spatial	attention_network_task	up	left	incongruent	89	0.623	s373
214.95486400000001	1.7	1.0	71.0	spatial	attention_network_task	up	right	incongruent	71	0.576	s373
217.562728	1.7	1.0	89.0	double	attention_network_task	up	left	incongruent	89	0.556	s373
220.170456	1.7	1.0	71.0	double	attention_network_task	down	right	incongruent	71	0.836	s373
222.778728	1.7	1.0	71.0	spatial	attention_network_task	up	right	incongruent	71	0.465	s373
225.387	1.7	1.0	71.0	spatial	attention_network_task	up	right	incongruent	71	0.523	s373
227.99559200000002	1.7	1.0	71.0	spatial	attention_network_task	down	right	incongruent	71	0.522	s373
230.604	1.7	1.0	89.0	spatial	attention_network_task	down	left	congruent	89	0.736	s373
233.212	1.7	1.0	89.0	double	attention_network_task	down	left	congruent	89	0.588	s373
235.819456	1.7	1.0	71.0	double	attention_network_task	down	right	incongruent	71	0.573	s373
238.427592	1.7	1.0	89.0	spatial	attention_network_task	up	left	congruent	89	0.659	s373
241.036	1.7	1.0	71.0	spatial	attention_network_task	up	right	congruent	71	0.517	s373
243.649864	1.7	1.0	89.0	spatial	attention_network_task	up	left	congruent	89	0.462	s373
246.257184	1.7	1.0	89.0	spatial	attention_network_task	down	left	incongruent	89	0.664	s373
248.865864	1.7	1.0	89.0	double	attention_network_task	down	left	congruent	89	0.83	s373
251.474	1.7	1.0	89.0	spatial	attention_network_task	up	left	congruent	89	0.59	s373
254.081864	1.7	1.0	71.0	double	attention_network_task	up	right	incongruent	71	0.58	s373
256.692864	1.7	1.0	89.0	spatial	attention_network_task	up	left	incongruent	89	0.512	s373
259.303864	1.7	1.0	71.0	double	attention_network_task	up	right	incongruent	71	0.487	s373
261.911456	1.7	1.0	89.0	spatial	attention_network_task	up	left	congruent	89	0.581	s373
264.525	1.7	1.0	89.0	spatial	attention_network_task	down	left	congruent	89	0.635	s373
267.132728	1.7	1.0	89.0	double	attention_network_task	down	left	incongruent	89	0.533	s373
269.747	1.7	1.0	71.0	spatial	attention_network_task	down	right	congruent	71	0.49	s373
272.354864	1.7	1.0	89.0	spatial	attention_network_task	down	left	congruent	89	0.502	s373
274.967592	1.7	1.0	71.0	double	attention_network_task	down	right	incongruent	71	0.504	s373
277.581456	1.7	1.0	71.0	double	attention_network_task	up	right	congruent	71	0.591	s373
280.194	1.7	1.0	89.0	double	attention_network_task	up	left	incongruent	89	0.718	s373
282.802864	1.7	1.0	89.0	spatial	attention_network_task	up	left	incongruent	89	0.449	s373
285.416864	1.7	1.0	71.0	double	attention_network_task	up	right	incongruent	71	0.466	s373
288.024864	1.7	1.0	89.0	spatial	attention_network_task	down	left	incongruent	89	0.544	s373
290.632864	1.7	1.0	71.0	double	attention_network_task	up	right	congruent	71	0.471	s373
293.240728	1.7	1.0	71.0	spatial	attention_network_task	down	right	incongruent	71	0.811	s373
295.854864	1.7	1.0	71.0	spatial	attention_network_task	down	right	incongruent	71	0.464	s373
298.465592	1.7	1.0	71.0	spatial	attention_network_task	down	right	incongruent	71	0.446	s373
301.079	1.7	1.0	89.0	double	attention_network_task	down	left	incongruent	89	0.557	s373
303.689864	1.7	1.0	71.0	double	attention_network_task	down	right	congruent	71	0.535	s373
306.303	1.7	1.0	71.0	spatial	attention_network_task	down	right	congruent	71	0.534	s373
308.913864	1.7	1.0	71.0	double	attention_network_task	down	right	incongruent	71	0.457	s373
311.524048	1.7	1.0	71.0	spatial	attention_network_task	down	right	congruent	71	0.498	s373
314.132728	1.7	1.0	71.0	double	attention_network_task	down	right	congruent	71	0.453	s373
316.745864	1.7	1.0	89.0	double	attention_network_task	down	left	congruent	89	0.469	s373
319.355	1.7	1.0	89.0	double	attention_network_task	down	left	incongruent	89	0.496	s373
321.967864	1.7	1.0	71.0	spatial	attention_network_task	down	right	incongruent	71	0.583	s373
324.581	1.7	1.0	89.0	double	attention_network_task	down	left	congruent	89	0.593	s373
327.192864	1.7	1.0	71.0	spatial	attention_network_task	up	right	incongruent	71	0.691	s373
329.807728	1.7	1.0	89.0	double	attention_network_task	up	left	incongruent	89	0.718	s373
332.416728	1.7	1.0	89.0	spatial	attention_network_task	up	left	incongruent	89	0.437	s373
335.024864	1.7	1.0	71.0	double	attention_network_task	down	right	congruent	71	0.656	s373
337.633	1.7	1.0	89.0	double	attention_network_task	up	left	incongruent	89	0.64	s373
340.240864	1.7	1.0	71.0	double	attention_network_task	up	right	incongruent	71	0.551	s373
342.854	1.7	1.0	71.0	spatial	attention_network_task	up	right	congruent	71	0.452	s373
345.464728	1.7	1.0	89.0	double	attention_network_task	up	left	congruent	89	0.5	s373
