onset	duration	block_duration	movement_onset	planning	condition	exp_stage	experiment_exp_id	key_press	problem_id	response_time	trial_id	trial_type	worker_id	junk
3.011	5.942	5.942	8.953	1	UA_with_intermediate	practice	ward_and_allport	71	0.0	5.942	to_hand	poldrack-single-stim	s373	False
8.954	0.1	0.883	9.837	0	UA_with_intermediate	practice	ward_and_allport	82	0.0	0.883	to_board	poldrack-single-stim	s373	False
9.84	0.1	1.486	11.326	0	UA_with_intermediate	practice	ward_and_allport	71	0.0	1.486	to_hand	poldrack-single-stim	s373	False
11.327	0.1	0.416	11.743	0	UA_with_intermediate	practice	ward_and_allport	89	0.0	0.416	to_board	poldrack-single-stim	s373	False
11.745	0.1	1.229	12.974	0	UA_with_intermediate	practice	ward_and_allport	82	0.0	1.229	to_hand	poldrack-single-stim	s373	False
12.974	0.1	0.597	13.571	0	UA_with_intermediate	practice	ward_and_allport	89	0.0	0.597	to_board	poldrack-single-stim	s373	False
13.577	1.0	2.5	13.576	0	UA_with_intermediate	practice	ward_and_allport	-1	0.0	n/a	feedback	poldrack-single-stim	s373	False
16.079	4.281	4.281	20.36	1	UA_with_intermediate	practice	ward_and_allport	89	1.0	4.281	to_hand	poldrack-single-stim	s373	False
20.36	0.1	0.529	20.889	0	UA_with_intermediate	practice	ward_and_allport	82	1.0	0.529	to_board	poldrack-single-stim	s373	False
20.891	0.1	0.637	21.528	0	UA_with_intermediate	practice	ward_and_allport	71	1.0	0.637	to_hand	poldrack-single-stim	s373	False
21.529	0.1	0.585	22.114	0	UA_with_intermediate	practice	ward_and_allport	89	1.0	0.585	to_board	poldrack-single-stim	s373	False
22.116	0.1	1.217	23.333	0	UA_with_intermediate	practice	ward_and_allport	82	1.0	1.217	to_hand	poldrack-single-stim	s373	False
23.334	0.1	0.388	23.722	0	UA_with_intermediate	practice	ward_and_allport	89	1.0	0.388	to_board	poldrack-single-stim	s373	False
23.727	1.0	2.1	23.726	0	UA_with_intermediate	practice	ward_and_allport	-1	1.0	n/a	feedback	poldrack-single-stim	s373	False
25.829	3.261	3.261	29.09	1	UA_without_intermediate	practice	ward_and_allport	82	2.0	3.261	to_hand	poldrack-single-stim	s373	False
29.091	0.1	0.54	29.631	0	UA_without_intermediate	practice	ward_and_allport	89	2.0	0.54	to_board	poldrack-single-stim	s373	False
29.634	0.1	1.23	30.864	0	UA_without_intermediate	practice	ward_and_allport	71	2.0	1.23	to_hand	poldrack-single-stim	s373	False
30.865	0.1	0.308	31.173	0	UA_without_intermediate	practice	ward_and_allport	89	2.0	0.308	to_board	poldrack-single-stim	s373	False
31.175	0.1	0.562	31.737	0	UA_without_intermediate	practice	ward_and_allport	71	2.0	0.562	to_hand	poldrack-single-stim	s373	False
31.738	0.1	0.274	32.012	0	UA_without_intermediate	practice	ward_and_allport	89	2.0	0.274	to_board	poldrack-single-stim	s373	False
32.017	1.0	2.2	32.016	0	UA_without_intermediate	practice	ward_and_allport	-1	2.0	n/a	feedback	poldrack-single-stim	s373	False
34.218	2.939	2.939	37.157	1	UA_without_intermediate	practice	ward_and_allport	71	3.0	2.939	to_hand	poldrack-single-stim	s373	False
37.158	0.1	0.573	37.731	0	UA_without_intermediate	practice	ward_and_allport	89	3.0	0.573	to_board	poldrack-single-stim	s373	False
37.733	0.1	0.897	38.63	0	UA_without_intermediate	practice	ward_and_allport	82	3.0	0.897	to_hand	poldrack-single-stim	s373	False
38.632	0.1	0.384	39.016	0	UA_without_intermediate	practice	ward_and_allport	89	3.0	0.384	to_board	poldrack-single-stim	s373	False
39.018	0.1	0.77	39.788	0	UA_without_intermediate	practice	ward_and_allport	71	3.0	0.77	to_hand	poldrack-single-stim	s373	False
39.79	0.1	0.363	40.153	0	UA_without_intermediate	practice	ward_and_allport	89	3.0	0.363	to_board	poldrack-single-stim	s373	False
40.158	1.0	2.0	40.157	0	UA_without_intermediate	practice	ward_and_allport	-1	3.0	n/a	feedback	poldrack-single-stim	s373	False
44.165	5.803	5.803	49.968	1	PA_with_intermediate	test	ward_and_allport	82	0.0	5.803	to_hand	poldrack-single-stim	s373	False
49.969	0.1	0.545	50.514	0	PA_with_intermediate	test	ward_and_allport	71	0.0	0.545	to_board	poldrack-single-stim	s373	False
50.515	0.1	2.247	52.762	0	PA_with_intermediate	test	ward_and_allport	82	0.0	2.247	to_hand	poldrack-single-stim	s373	False
52.763	0.1	0.404	53.167	0	PA_with_intermediate	test	ward_and_allport	89	0.0	0.404	to_board	poldrack-single-stim	s373	False
53.169	0.1	0.753	53.922	0	PA_with_intermediate	test	ward_and_allport	71	0.0	0.753	to_hand	poldrack-single-stim	s373	False
53.924	0.1	0.309	54.233	0	PA_with_intermediate	test	ward_and_allport	89	0.0	0.309	to_board	poldrack-single-stim	s373	False
54.236	1.0	3.768	54.235	0	PA_with_intermediate	test	ward_and_allport	-1	0.0	n/a	feedback	poldrack-single-stim	s373	False
58.007	4.238	4.238	62.245	1	PA_with_intermediate	test	ward_and_allport	71	1.0	4.238	to_hand	poldrack-single-stim	s373	False
62.246	0.1	0.4	62.646	0	PA_with_intermediate	test	ward_and_allport	82	1.0	0.4	to_board	poldrack-single-stim	s373	False
62.648	0.1	0.631	63.279	0	PA_with_intermediate	test	ward_and_allport	71	1.0	0.631	to_hand	poldrack-single-stim	s373	False
63.28	0.1	0.428	63.708	0	PA_with_intermediate	test	ward_and_allport	89	1.0	0.428	to_board	poldrack-single-stim	s373	False
63.71	0.1	1.171	64.881	0	PA_with_intermediate	test	ward_and_allport	82	1.0	1.171	to_hand	poldrack-single-stim	s373	False
64.882	0.1	0.326	65.208	0	PA_with_intermediate	test	ward_and_allport	71	1.0	0.326	to_board	poldrack-single-stim	s373	False
65.213	1.0	2.68	65.212	0	PA_with_intermediate	test	ward_and_allport	-1	1.0	n/a	feedback	poldrack-single-stim	s373	False
67.895	4.259	4.259	72.154	1	PA_without_intermediate	test	ward_and_allport	82	2.0	4.259	to_hand	poldrack-single-stim	s373	False
72.156	0.1	0.768	72.924	0	PA_without_intermediate	test	ward_and_allport	89	2.0	0.768	to_board	poldrack-single-stim	s373	False
72.926	0.1	3.359	76.285	0	PA_without_intermediate	test	ward_and_allport	82	2.0	3.359	to_hand	poldrack-single-stim	s373	False
76.286	0.1	0.504	76.79	0	PA_without_intermediate	test	ward_and_allport	71	2.0	0.504	to_board	poldrack-single-stim	s373	False
76.793	0.1	2.269	79.062	0	PA_without_intermediate	test	ward_and_allport	82	2.0	2.269	to_hand	poldrack-single-stim	s373	False
79.063	0.1	0.283	79.346	0	PA_without_intermediate	test	ward_and_allport	89	2.0	0.283	to_board	poldrack-single-stim	s373	False
79.352	1.0	3.224	79.351	0	PA_without_intermediate	test	ward_and_allport	-1	2.0	n/a	feedback	poldrack-single-stim	s373	False
82.579	3.187	3.187	85.766	1	PA_without_intermediate	test	ward_and_allport	89	3.0	3.187	to_hand	poldrack-single-stim	s373	False
85.767	0.1	0.482	86.249	0	PA_without_intermediate	test	ward_and_allport	82	3.0	0.482	to_board	poldrack-single-stim	s373	False
86.252	0.1	2.294	88.546	0	PA_without_intermediate	test	ward_and_allport	89	3.0	2.294	to_hand	poldrack-single-stim	s373	False
88.547	0.1	0.336	88.883	0	PA_without_intermediate	test	ward_and_allport	71	3.0	0.336	to_board	poldrack-single-stim	s373	False
88.886	0.1	1.427	90.313	0	PA_without_intermediate	test	ward_and_allport	89	3.0	1.427	to_hand	poldrack-single-stim	s373	False
90.314	0.1	0.336	90.65	0	PA_without_intermediate	test	ward_and_allport	82	3.0	0.336	to_board	poldrack-single-stim	s373	False
90.657	1.0	3.36	90.656	0	PA_without_intermediate	test	ward_and_allport	-1	3.0	n/a	feedback	poldrack-single-stim	s373	False
94.02	4.753	4.753	98.773	1	PA_without_intermediate	test	ward_and_allport	89	4.0	4.753	to_hand	poldrack-single-stim	s373	False
98.774	0.1	0.635	99.409	0	PA_without_intermediate	test	ward_and_allport	71	4.0	0.635	to_board	poldrack-single-stim	s373	False
99.412	0.1	1.464	100.876	0	PA_without_intermediate	test	ward_and_allport	89	4.0	1.464	to_hand	poldrack-single-stim	s373	False
100.877	0.1	0.389	101.266	0	PA_without_intermediate	test	ward_and_allport	71	4.0	0.389	to_board	poldrack-single-stim	s373	False
101.268	0.1	0.782	102.05	0	PA_without_intermediate	test	ward_and_allport	89	4.0	0.782	to_hand	poldrack-single-stim	s373	False
102.052	0.1	0.329	102.381	0	PA_without_intermediate	test	ward_and_allport	82	4.0	0.329	to_board	poldrack-single-stim	s373	False
102.385	1.0	2.0	102.384	0	PA_without_intermediate	test	ward_and_allport	-1	4.0	n/a	feedback	poldrack-single-stim	s373	False
104.389	2.896	2.896	107.285	1	PA_without_intermediate	test	ward_and_allport	71	5.0	2.896	to_hand	poldrack-single-stim	s373	False
107.286	0.1	0.408	107.694	0	PA_without_intermediate	test	ward_and_allport	89	5.0	0.408	to_board	poldrack-single-stim	s373	False
107.697	0.1	1.106	108.803	0	PA_without_intermediate	test	ward_and_allport	71	5.0	1.106	to_hand	poldrack-single-stim	s373	False
108.803	0.1	0.375	109.178	0	PA_without_intermediate	test	ward_and_allport	82	5.0	0.375	to_board	poldrack-single-stim	s373	False
109.18	0.1	1.35	110.53	0	PA_without_intermediate	test	ward_and_allport	71	5.0	1.35	to_hand	poldrack-single-stim	s373	False
110.531	0.1	0.272	110.803	0	PA_without_intermediate	test	ward_and_allport	89	5.0	0.272	to_board	poldrack-single-stim	s373	False
110.808	1.0	2.408	110.807	0	PA_without_intermediate	test	ward_and_allport	-1	5.0	n/a	feedback	poldrack-single-stim	s373	False
113.218	3.843	3.843	117.061	1	PA_with_intermediate	test	ward_and_allport	71	6.0	3.843	to_hand	poldrack-single-stim	s373	False
117.063	0.1	0.402	117.465	0	PA_with_intermediate	test	ward_and_allport	82	6.0	0.402	to_board	poldrack-single-stim	s373	False
117.468	0.1	0.571	118.039	0	PA_with_intermediate	test	ward_and_allport	71	6.0	0.571	to_hand	poldrack-single-stim	s373	False
118.039	0.1	0.446	118.485	0	PA_with_intermediate	test	ward_and_allport	89	6.0	0.446	to_board	poldrack-single-stim	s373	False
118.489	0.1	0.89	119.379	0	PA_with_intermediate	test	ward_and_allport	82	6.0	0.89	to_hand	poldrack-single-stim	s373	False
119.38	0.1	0.396	119.776	0	PA_with_intermediate	test	ward_and_allport	71	6.0	0.396	to_board	poldrack-single-stim	s373	False
119.781	1.0	2.136	119.78	0	PA_with_intermediate	test	ward_and_allport	-1	6.0	n/a	feedback	poldrack-single-stim	s373	False
121.919	5.117	5.117	127.036	1	PA_without_intermediate	test	ward_and_allport	71	7.0	5.117	to_hand	poldrack-single-stim	s373	False
127.037	0.1	0.55	127.587	0	PA_without_intermediate	test	ward_and_allport	82	7.0	0.55	to_board	poldrack-single-stim	s373	False
127.59	0.1	0.947	128.537	0	PA_without_intermediate	test	ward_and_allport	71	7.0	0.947	to_hand	poldrack-single-stim	s373	False
128.539	0.1	5.383	133.922	0	PA_without_intermediate	test	ward_and_allport	71	7.0	5.383	to_board	poldrack-single-stim	s373	False
133.925	0.1	1.738	135.663	0	PA_without_intermediate	test	ward_and_allport	82	7.0	1.738	to_hand	poldrack-single-stim	s373	False
135.664	0.1	0.345	136.009	0	PA_without_intermediate	test	ward_and_allport	89	7.0	0.345	to_board	poldrack-single-stim	s373	False
136.013	0.1	1.895	137.908	0	PA_without_intermediate	test	ward_and_allport	71	7.0	1.895	to_hand	poldrack-single-stim	s373	False
137.909	0.1	0.576	138.485	0	PA_without_intermediate	test	ward_and_allport	89	7.0	0.576	to_board	poldrack-single-stim	s373	False
138.488	0.1	2.963	141.451	0	PA_without_intermediate	test	ward_and_allport	71	7.0	2.963	to_hand	poldrack-single-stim	s373	False
141.452	0.1	0.274	141.726	0	PA_without_intermediate	test	ward_and_allport	82	7.0	0.274	to_board	poldrack-single-stim	s373	False
141.733	1.0	5.128	141.732	0	PA_without_intermediate	test	ward_and_allport	-1	7.0	n/a	feedback	poldrack-single-stim	s373	False
146.865	2.808	2.808	149.673	1	PA_without_intermediate	test	ward_and_allport	71	8.0	2.808	to_hand	poldrack-single-stim	s373	False
149.673	0.1	0.814	150.487	0	PA_without_intermediate	test	ward_and_allport	89	8.0	0.814	to_board	poldrack-single-stim	s373	False
150.49	0.1	0.433	150.923	0	PA_without_intermediate	test	ward_and_allport	71	8.0	0.433	to_hand	poldrack-single-stim	s373	False
150.925	0.1	0.492	151.417	0	PA_without_intermediate	test	ward_and_allport	82	8.0	0.492	to_board	poldrack-single-stim	s373	False
151.42	0.1	0.813	152.233	0	PA_without_intermediate	test	ward_and_allport	71	8.0	0.813	to_hand	poldrack-single-stim	s373	False
152.234	0.1	0.314	152.548	0	PA_without_intermediate	test	ward_and_allport	89	8.0	0.314	to_board	poldrack-single-stim	s373	False
152.552	1.0	2.136	152.551	0	PA_without_intermediate	test	ward_and_allport	-1	8.0	n/a	feedback	poldrack-single-stim	s373	False
154.693	3.547	3.547	158.24	1	PA_without_intermediate	test	ward_and_allport	82	9.0	3.547	to_hand	poldrack-single-stim	s373	False
158.24	0.1	0.387	158.627	0	PA_without_intermediate	test	ward_and_allport	71	9.0	0.387	to_board	poldrack-single-stim	s373	False
158.632	0.1	2.388	161.02	0	PA_without_intermediate	test	ward_and_allport	82	9.0	2.388	to_hand	poldrack-single-stim	s373	False
161.021	0.1	0.389	161.41	0	PA_without_intermediate	test	ward_and_allport	71	9.0	0.389	to_board	poldrack-single-stim	s373	False
161.414	0.1	3.624	165.038	0	PA_without_intermediate	test	ward_and_allport	82	9.0	3.624	to_hand	poldrack-single-stim	s373	False
165.04	0.1	0.34	165.38	0	PA_without_intermediate	test	ward_and_allport	89	9.0	0.34	to_board	poldrack-single-stim	s373	False
165.387	1.0	5.264	165.386	0	PA_without_intermediate	test	ward_and_allport	-1	9.0	n/a	feedback	poldrack-single-stim	s373	False
170.654	4.28	4.28	174.934	1	PA_with_intermediate	test	ward_and_allport	89	10.0	4.28	to_hand	poldrack-single-stim	s373	False
174.935	0.1	1.489	176.424	0	PA_with_intermediate	test	ward_and_allport	71	10.0	1.489	to_board	poldrack-single-stim	s373	False
176.43	0.1	0.873	177.303	0	PA_with_intermediate	test	ward_and_allport	89	10.0	0.873	to_hand	poldrack-single-stim	s373	False
177.304	0.1	0.477	177.781	0	PA_with_intermediate	test	ward_and_allport	82	10.0	0.477	to_board	poldrack-single-stim	s373	False
177.785	0.1	1.975	179.76	0	PA_with_intermediate	test	ward_and_allport	71	10.0	1.975	to_hand	poldrack-single-stim	s373	False
179.762	0.1	0.236	179.998	0	PA_with_intermediate	test	ward_and_allport	89	10.0	0.236	to_board	poldrack-single-stim	s373	False
180.003	1.0	4.04	180.002	0	PA_with_intermediate	test	ward_and_allport	-1	10.0	n/a	feedback	poldrack-single-stim	s373	False
184.046	5.209	5.209	189.255	1	PA_with_intermediate	test	ward_and_allport	71	11.0	5.209	to_hand	poldrack-single-stim	s373	False
189.257	0.1	0.451	189.708	0	PA_with_intermediate	test	ward_and_allport	89	11.0	0.451	to_board	poldrack-single-stim	s373	False
189.711	0.1	0.93	190.641	0	PA_with_intermediate	test	ward_and_allport	71	11.0	0.93	to_hand	poldrack-single-stim	s373	False
190.642	0.1	0.552	191.194	0	PA_with_intermediate	test	ward_and_allport	82	11.0	0.552	to_board	poldrack-single-stim	s373	False
191.199	0.1	0.455	191.654	0	PA_with_intermediate	test	ward_and_allport	89	11.0	0.455	to_hand	poldrack-single-stim	s373	False
191.656	0.1	0.291	191.947	0	PA_with_intermediate	test	ward_and_allport	71	11.0	0.291	to_board	poldrack-single-stim	s373	False
191.951	1.0	2.136	191.95	0	PA_with_intermediate	test	ward_and_allport	-1	11.0	n/a	feedback	poldrack-single-stim	s373	False
194.09	5.197	5.197	199.287	1	PA_with_intermediate	test	ward_and_allport	71	12.0	5.197	to_hand	poldrack-single-stim	s373	False
199.289	0.1	0.965	200.254	0	PA_with_intermediate	test	ward_and_allport	89	12.0	0.965	to_board	poldrack-single-stim	s373	False
200.258	0.1	0.766	201.024	0	PA_with_intermediate	test	ward_and_allport	71	12.0	0.766	to_hand	poldrack-single-stim	s373	False
201.025	0.1	0.476	201.501	0	PA_with_intermediate	test	ward_and_allport	82	12.0	0.476	to_board	poldrack-single-stim	s373	False
201.505	0.1	0.544	202.049	0	PA_with_intermediate	test	ward_and_allport	89	12.0	0.544	to_hand	poldrack-single-stim	s373	False
202.05	0.1	0.416	202.466	0	PA_with_intermediate	test	ward_and_allport	82	12.0	0.416	to_board	poldrack-single-stim	s373	False
202.473	1.0	2.408	202.472	0	PA_with_intermediate	test	ward_and_allport	-1	12.0	n/a	feedback	poldrack-single-stim	s373	False
204.884	3.833	3.833	208.717	1	PA_without_intermediate	test	ward_and_allport	82	13.0	3.833	to_hand	poldrack-single-stim	s373	False
208.718	0.1	0.406	209.124	0	PA_without_intermediate	test	ward_and_allport	89	13.0	0.406	to_board	poldrack-single-stim	s373	False
209.129	0.1	1.464	210.593	0	PA_without_intermediate	test	ward_and_allport	82	13.0	1.464	to_hand	poldrack-single-stim	s373	False
210.594	0.1	0.365	210.959	0	PA_without_intermediate	test	ward_and_allport	89	13.0	0.365	to_board	poldrack-single-stim	s373	False
210.963	0.1	1.728	212.691	0	PA_without_intermediate	test	ward_and_allport	82	13.0	1.728	to_hand	poldrack-single-stim	s373	False
212.692	0.1	0.383	213.075	0	PA_without_intermediate	test	ward_and_allport	71	13.0	0.383	to_board	poldrack-single-stim	s373	False
213.082	1.0	2.68	213.081	0	PA_without_intermediate	test	ward_and_allport	-1	13.0	n/a	feedback	poldrack-single-stim	s373	False
215.766	3.876	3.876	219.642	1	PA_with_intermediate	test	ward_and_allport	82	14.0	3.876	to_hand	poldrack-single-stim	s373	False
219.643	0.1	0.388	220.031	0	PA_with_intermediate	test	ward_and_allport	71	14.0	0.388	to_board	poldrack-single-stim	s373	False
220.034	0.1	0.996	221.03	0	PA_with_intermediate	test	ward_and_allport	82	14.0	0.996	to_hand	poldrack-single-stim	s373	False
221.032	0.1	0.339	221.371	0	PA_with_intermediate	test	ward_and_allport	89	14.0	0.339	to_board	poldrack-single-stim	s373	False
221.374	0.1	1.264	222.638	0	PA_with_intermediate	test	ward_and_allport	71	14.0	1.264	to_hand	poldrack-single-stim	s373	False
222.64	0.1	0.3	222.94	0	PA_with_intermediate	test	ward_and_allport	82	14.0	0.3	to_board	poldrack-single-stim	s373	False
222.945	1.0	4.72	222.944	0	PA_with_intermediate	test	ward_and_allport	-1	14.0	n/a	feedback	poldrack-single-stim	s373	False
232.672	3.612	3.612	236.284	1	PA_without_intermediate	test	ward_and_allport	71	15.0	3.612	to_hand	poldrack-single-stim	s373	False
236.285	0.1	1.082	237.367	0	PA_without_intermediate	test	ward_and_allport	82	15.0	1.082	to_board	poldrack-single-stim	s373	False
237.372	0.1	0.742	238.114	0	PA_without_intermediate	test	ward_and_allport	71	15.0	0.742	to_hand	poldrack-single-stim	s373	False
238.115	0.1	0.41	238.525	0	PA_without_intermediate	test	ward_and_allport	89	15.0	0.41	to_board	poldrack-single-stim	s373	False
238.53	0.1	0.647	239.177	0	PA_without_intermediate	test	ward_and_allport	71	15.0	0.647	to_hand	poldrack-single-stim	s373	False
239.178	0.1	0.265	239.443	0	PA_without_intermediate	test	ward_and_allport	82	15.0	0.265	to_board	poldrack-single-stim	s373	False
239.451	1.0	3.224	239.45	0	PA_without_intermediate	test	ward_and_allport	-1	15.0	n/a	feedback	poldrack-single-stim	s373	False
242.679	4.116	4.116	246.795	1	PA_without_intermediate	test	ward_and_allport	89	16.0	4.116	to_hand	poldrack-single-stim	s373	False
246.796	0.1	0.598	247.394	0	PA_without_intermediate	test	ward_and_allport	82	16.0	0.598	to_board	poldrack-single-stim	s373	False
247.398	0.1	0.876	248.274	0	PA_without_intermediate	test	ward_and_allport	89	16.0	0.876	to_hand	poldrack-single-stim	s373	False
248.275	0.1	0.61	248.885	0	PA_without_intermediate	test	ward_and_allport	82	16.0	0.61	to_board	poldrack-single-stim	s373	False
248.889	0.1	0.87	249.759	0	PA_without_intermediate	test	ward_and_allport	89	16.0	0.87	to_hand	poldrack-single-stim	s373	False
249.761	0.1	0.317	250.078	0	PA_without_intermediate	test	ward_and_allport	71	16.0	0.317	to_board	poldrack-single-stim	s373	False
250.084	1.0	2.272	250.083	0	PA_without_intermediate	test	ward_and_allport	-1	16.0	n/a	feedback	poldrack-single-stim	s373	False
252.36	4.755	4.755	257.115	1	PA_with_intermediate	test	ward_and_allport	89	17.0	4.755	to_hand	poldrack-single-stim	s373	False
257.116	0.1	0.453	257.569	0	PA_with_intermediate	test	ward_and_allport	71	17.0	0.453	to_board	poldrack-single-stim	s373	False
257.574	0.1	0.71	258.284	0	PA_with_intermediate	test	ward_and_allport	89	17.0	0.71	to_hand	poldrack-single-stim	s373	False
258.285	0.1	1.031	259.316	0	PA_with_intermediate	test	ward_and_allport	82	17.0	1.031	to_board	poldrack-single-stim	s373	False
259.32	0.1	0.592	259.912	0	PA_with_intermediate	test	ward_and_allport	71	17.0	0.592	to_hand	poldrack-single-stim	s373	False
259.913	0.1	0.431	260.344	0	PA_with_intermediate	test	ward_and_allport	82	17.0	0.431	to_board	poldrack-single-stim	s373	False
260.351	1.0	3.632	260.35	0	PA_with_intermediate	test	ward_and_allport	-1	17.0	n/a	feedback	poldrack-single-stim	s373	False
263.988	3.358	3.358	267.346	1	PA_without_intermediate	test	ward_and_allport	71	18.0	3.358	to_hand	poldrack-single-stim	s373	False
267.347	0.1	0.368	267.715	0	PA_without_intermediate	test	ward_and_allport	82	18.0	0.368	to_board	poldrack-single-stim	s373	False
267.72	0.1	0.691	268.411	0	PA_without_intermediate	test	ward_and_allport	71	18.0	0.691	to_hand	poldrack-single-stim	s373	False
268.412	0.1	0.318	268.73	0	PA_without_intermediate	test	ward_and_allport	82	18.0	0.318	to_board	poldrack-single-stim	s373	False
268.735	0.1	0.906	269.641	0	PA_without_intermediate	test	ward_and_allport	71	18.0	0.906	to_hand	poldrack-single-stim	s373	False
269.642	0.1	0.256	269.898	0	PA_without_intermediate	test	ward_and_allport	89	18.0	0.256	to_board	poldrack-single-stim	s373	False
269.906	1.0	2.408	269.905	0	PA_without_intermediate	test	ward_and_allport	-1	18.0	n/a	feedback	poldrack-single-stim	s373	False
272.319	3.266	3.266	275.585	1	PA_without_intermediate	test	ward_and_allport	71	19.0	3.266	to_hand	poldrack-single-stim	s373	False
275.586	0.1	1.302	276.888	0	PA_without_intermediate	test	ward_and_allport	82	19.0	1.302	to_board	poldrack-single-stim	s373	False
276.893	0.1	0.493	277.386	0	PA_without_intermediate	test	ward_and_allport	71	19.0	0.493	to_hand	poldrack-single-stim	s373	False
277.386	0.1	0.448	277.834	0	PA_without_intermediate	test	ward_and_allport	89	19.0	0.448	to_board	poldrack-single-stim	s373	False
277.839	0.1	0.549	278.388	0	PA_without_intermediate	test	ward_and_allport	71	19.0	0.549	to_hand	poldrack-single-stim	s373	False
278.389	0.1	0.367	278.756	0	PA_without_intermediate	test	ward_and_allport	82	19.0	0.367	to_board	poldrack-single-stim	s373	False
278.766	1.0	2.0	278.765	0	PA_without_intermediate	test	ward_and_allport	-1	19.0	n/a	feedback	poldrack-single-stim	s373	False
280.771	5.424	5.424	286.195	1	PA_with_intermediate	test	ward_and_allport	82	20.0	5.424	to_hand	poldrack-single-stim	s373	False
286.196	0.1	0.441	286.637	0	PA_with_intermediate	test	ward_and_allport	89	20.0	0.441	to_board	poldrack-single-stim	s373	False
286.642	0.1	0.844	287.486	0	PA_with_intermediate	test	ward_and_allport	82	20.0	0.844	to_hand	poldrack-single-stim	s373	False
287.487	0.1	0.452	287.939	0	PA_with_intermediate	test	ward_and_allport	71	20.0	0.452	to_board	poldrack-single-stim	s373	False
287.943	0.1	0.632	288.575	0	PA_with_intermediate	test	ward_and_allport	89	20.0	0.632	to_hand	poldrack-single-stim	s373	False
288.576	0.1	0.297	288.873	0	PA_with_intermediate	test	ward_and_allport	71	20.0	0.297	to_board	poldrack-single-stim	s373	False
288.88	1.0	2.0	288.879	0	PA_with_intermediate	test	ward_and_allport	-1	20.0	n/a	feedback	poldrack-single-stim	s373	False
290.885	4.693	4.693	295.578	1	PA_with_intermediate	test	ward_and_allport	89	21.0	4.693	to_hand	poldrack-single-stim	s373	False
295.579	0.1	0.398	295.977	0	PA_with_intermediate	test	ward_and_allport	82	21.0	0.398	to_board	poldrack-single-stim	s373	False
295.982	0.1	1.069	297.051	0	PA_with_intermediate	test	ward_and_allport	89	21.0	1.069	to_hand	poldrack-single-stim	s373	False
297.052	0.1	0.455	297.507	0	PA_with_intermediate	test	ward_and_allport	71	21.0	0.455	to_board	poldrack-single-stim	s373	False
297.512	0.1	2.543	300.055	0	PA_with_intermediate	test	ward_and_allport	82	21.0	2.543	to_hand	poldrack-single-stim	s373	False
300.055	0.1	0.314	300.369	0	PA_with_intermediate	test	ward_and_allport	89	21.0	0.314	to_board	poldrack-single-stim	s373	False
300.378	1.0	2.0	300.377	0	PA_with_intermediate	test	ward_and_allport	-1	21.0	n/a	feedback	poldrack-single-stim	s373	False
302.383	5.316	5.316	307.699	1	PA_with_intermediate	test	ward_and_allport	89	22.0	5.316	to_hand	poldrack-single-stim	s373	False
307.7	0.1	0.351	308.051	0	PA_with_intermediate	test	ward_and_allport	82	22.0	0.351	to_board	poldrack-single-stim	s373	False
308.057	0.1	0.399	308.456	0	PA_with_intermediate	test	ward_and_allport	89	22.0	0.399	to_hand	poldrack-single-stim	s373	False
308.456	0.1	0.411	308.867	0	PA_with_intermediate	test	ward_and_allport	71	22.0	0.411	to_board	poldrack-single-stim	s373	False
308.873	0.1	0.844	309.717	0	PA_with_intermediate	test	ward_and_allport	82	22.0	0.844	to_hand	poldrack-single-stim	s373	False
309.718	0.1	0.279	309.997	0	PA_with_intermediate	test	ward_and_allport	89	22.0	0.279	to_board	poldrack-single-stim	s373	False
310.004	1.0	2.408	310.003	0	PA_with_intermediate	test	ward_and_allport	-1	22.0	n/a	feedback	poldrack-single-stim	s373	False
312.419	4.067	4.067	316.486	1	PA_without_intermediate	test	ward_and_allport	89	23.0	4.067	to_hand	poldrack-single-stim	s373	False
316.488	0.1	0.506	316.994	0	PA_without_intermediate	test	ward_and_allport	71	23.0	0.506	to_board	poldrack-single-stim	s373	False
317.0	0.1	0.994	317.994	0	PA_without_intermediate	test	ward_and_allport	89	23.0	0.994	to_hand	poldrack-single-stim	s373	False
317.995	0.1	0.357	318.352	0	PA_without_intermediate	test	ward_and_allport	82	23.0	0.357	to_board	poldrack-single-stim	s373	False
318.359	0.1	0.562	318.921	0	PA_without_intermediate	test	ward_and_allport	89	23.0	0.562	to_hand	poldrack-single-stim	s373	False
318.921	0.1	0.387	319.308	0	PA_without_intermediate	test	ward_and_allport	71	23.0	0.387	to_board	poldrack-single-stim	s373	False
319.319	1.0	2.816	319.318	0	PA_without_intermediate	test	ward_and_allport	-1	23.0	n/a	feedback	poldrack-single-stim	s373	False
322.141	4.354	4.354	326.495	1	PA_with_intermediate	test	ward_and_allport	82	24.0	4.354	to_hand	poldrack-single-stim	s373	False
326.496	0.1	0.601	327.097	0	PA_with_intermediate	test	ward_and_allport	89	24.0	0.601	to_board	poldrack-single-stim	s373	False
327.104	0.1	0.889	327.993	0	PA_with_intermediate	test	ward_and_allport	82	24.0	0.889	to_hand	poldrack-single-stim	s373	False
327.993	0.1	0.475	328.468	0	PA_with_intermediate	test	ward_and_allport	71	24.0	0.475	to_board	poldrack-single-stim	s373	False
328.474	0.1	1.111	329.585	0	PA_with_intermediate	test	ward_and_allport	89	24.0	1.111	to_hand	poldrack-single-stim	s373	False
329.586	0.1	0.337	329.923	0	PA_with_intermediate	test	ward_and_allport	82	24.0	0.337	to_board	poldrack-single-stim	s373	False
329.933	1.0	4.176	329.932	0	PA_with_intermediate	test	ward_and_allport	-1	24.0	n/a	feedback	poldrack-single-stim	s373	False
334.116	4.136	4.136	338.252	1	PA_with_intermediate	test	ward_and_allport	71	25.0	4.136	to_hand	poldrack-single-stim	s373	False
338.253	0.1	0.37	338.623	0	PA_with_intermediate	test	ward_and_allport	82	25.0	0.37	to_board	poldrack-single-stim	s373	False
338.629	0.1	0.649	339.278	0	PA_with_intermediate	test	ward_and_allport	71	25.0	0.649	to_hand	poldrack-single-stim	s373	False
339.28	0.1	0.418	339.698	0	PA_with_intermediate	test	ward_and_allport	89	25.0	0.418	to_board	poldrack-single-stim	s373	False
339.704	0.1	0.353	340.057	0	PA_with_intermediate	test	ward_and_allport	82	25.0	0.353	to_hand	poldrack-single-stim	s373	False
340.059	0.1	0.315	340.374	0	PA_with_intermediate	test	ward_and_allport	89	25.0	0.315	to_board	poldrack-single-stim	s373	False
340.382	1.0	3.36	340.381	0	PA_with_intermediate	test	ward_and_allport	-1	25.0	n/a	feedback	poldrack-single-stim	s373	False
343.748	4.657	4.657	348.405	1	PA_with_intermediate	test	ward_and_allport	89	26.0	4.657	to_hand	poldrack-single-stim	s373	False
348.406	0.1	0.646	349.052	0	PA_with_intermediate	test	ward_and_allport	71	26.0	0.646	to_board	poldrack-single-stim	s373	False
349.059	0.1	0.478	349.537	0	PA_with_intermediate	test	ward_and_allport	89	26.0	0.478	to_hand	poldrack-single-stim	s373	False
349.538	0.1	0.411	349.949	0	PA_with_intermediate	test	ward_and_allport	82	26.0	0.411	to_board	poldrack-single-stim	s373	False
349.956	0.1	0.516	350.472	0	PA_with_intermediate	test	ward_and_allport	71	26.0	0.516	to_hand	poldrack-single-stim	s373	False
350.473	0.1	0.335	350.808	0	PA_with_intermediate	test	ward_and_allport	89	26.0	0.335	to_board	poldrack-single-stim	s373	False
350.82	1.0	2.0	350.819	0	PA_with_intermediate	test	ward_and_allport	-1	26.0	n/a	feedback	poldrack-single-stim	s373	False
352.826	3.571	3.571	356.397	1	PA_without_intermediate	test	ward_and_allport	89	27.0	3.571	to_hand	poldrack-single-stim	s373	False
356.398	0.1	0.342	356.74	0	PA_without_intermediate	test	ward_and_allport	71	27.0	0.342	to_board	poldrack-single-stim	s373	False
356.747	0.1	0.5	357.247	0	PA_without_intermediate	test	ward_and_allport	89	27.0	0.5	to_hand	poldrack-single-stim	s373	False
357.248	0.1	0.4	357.648	0	PA_without_intermediate	test	ward_and_allport	82	27.0	0.4	to_board	poldrack-single-stim	s373	False
357.654	0.1	1.181	358.835	0	PA_without_intermediate	test	ward_and_allport	89	27.0	1.181	to_hand	poldrack-single-stim	s373	False
358.837	0.1	0.228	359.065	0	PA_without_intermediate	test	ward_and_allport	71	27.0	0.228	to_board	poldrack-single-stim	s373	False
359.073	1.0	2.408	359.072	0	PA_without_intermediate	test	ward_and_allport	-1	27.0	n/a	feedback	poldrack-single-stim	s373	False
361.488	5.48	5.48	366.968	1	PA_with_intermediate	test	ward_and_allport	89	28.0	5.48	to_hand	poldrack-single-stim	s373	False
366.969	0.1	0.465	367.434	0	PA_with_intermediate	test	ward_and_allport	82	28.0	0.465	to_board	poldrack-single-stim	s373	False
367.442	0.1	1.932	369.374	0	PA_with_intermediate	test	ward_and_allport	89	28.0	1.932	to_hand	poldrack-single-stim	s373	False
369.376	0.1	0.638	370.014	0	PA_with_intermediate	test	ward_and_allport	71	28.0	0.638	to_board	poldrack-single-stim	s373	False
370.022	0.1	0.702	370.724	0	PA_with_intermediate	test	ward_and_allport	82	28.0	0.702	to_hand	poldrack-single-stim	s373	False
370.725	0.1	0.335	371.06	0	PA_with_intermediate	test	ward_and_allport	71	28.0	0.335	to_board	poldrack-single-stim	s373	False
371.069	1.0	2.816	371.068	0	PA_with_intermediate	test	ward_and_allport	-1	28.0	n/a	feedback	poldrack-single-stim	s373	False
373.892	3.06	3.06	376.952	1	PA_without_intermediate	test	ward_and_allport	82	29.0	3.06	to_hand	poldrack-single-stim	s373	False
376.953	0.1	0.529	377.482	0	PA_without_intermediate	test	ward_and_allport	89	29.0	0.529	to_board	poldrack-single-stim	s373	False
377.49	0.1	3.384	380.874	0	PA_without_intermediate	test	ward_and_allport	82	29.0	3.384	to_hand	poldrack-single-stim	s373	False
380.875	0.1	0.942	381.817	0	PA_without_intermediate	test	ward_and_allport	89	29.0	0.942	to_board	poldrack-single-stim	s373	False
381.825	0.1	0.364	382.189	0	PA_without_intermediate	test	ward_and_allport	82	29.0	0.364	to_hand	poldrack-single-stim	s373	False
382.189	0.1	0.341	382.53	0	PA_without_intermediate	test	ward_and_allport	71	29.0	0.341	to_board	poldrack-single-stim	s373	False
382.542	1.0	3.088	382.541	0	PA_without_intermediate	test	ward_and_allport	-1	29.0	n/a	feedback	poldrack-single-stim	s373	False
390.642	3.484	3.484	394.126	1	PA_without_intermediate	test	ward_and_allport	82	30.0	3.484	to_hand	poldrack-single-stim	s373	False
394.127	0.1	0.489	394.616	0	PA_without_intermediate	test	ward_and_allport	71	30.0	0.489	to_board	poldrack-single-stim	s373	False
394.622	0.1	0.387	395.009	0	PA_without_intermediate	test	ward_and_allport	82	30.0	0.387	to_hand	poldrack-single-stim	s373	False
395.011	0.1	0.463	395.474	0	PA_without_intermediate	test	ward_and_allport	71	30.0	0.463	to_board	poldrack-single-stim	s373	False
395.482	0.1	1.653	397.135	0	PA_without_intermediate	test	ward_and_allport	82	30.0	1.653	to_hand	poldrack-single-stim	s373	False
397.137	0.1	0.254	397.391	0	PA_without_intermediate	test	ward_and_allport	89	30.0	0.254	to_board	poldrack-single-stim	s373	False
397.4	1.0	2.136	397.399	0	PA_without_intermediate	test	ward_and_allport	-1	30.0	n/a	feedback	poldrack-single-stim	s373	False
399.544	3.075	3.075	402.619	1	PA_without_intermediate	test	ward_and_allport	82	31.0	3.075	to_hand	poldrack-single-stim	s373	False
402.619	0.1	0.534	403.153	0	PA_without_intermediate	test	ward_and_allport	71	31.0	0.534	to_board	poldrack-single-stim	s373	False
403.16	0.1	1.135	404.295	0	PA_without_intermediate	test	ward_and_allport	82	31.0	1.135	to_hand	poldrack-single-stim	s373	False
404.296	0.1	0.418	404.714	0	PA_without_intermediate	test	ward_and_allport	89	31.0	0.418	to_board	poldrack-single-stim	s373	False
404.723	0.1	0.565	405.288	0	PA_without_intermediate	test	ward_and_allport	82	31.0	0.565	to_hand	poldrack-single-stim	s373	False
405.289	0.1	0.351	405.64	0	PA_without_intermediate	test	ward_and_allport	71	31.0	0.351	to_board	poldrack-single-stim	s373	False
405.655	1.0	7.168	405.654	0	PA_without_intermediate	test	ward_and_allport	-1	31.0	n/a	feedback	poldrack-single-stim	s373	False
412.832	2.937	2.937	415.769	1	PA_without_intermediate	test	ward_and_allport	82	32.0	2.937	to_hand	poldrack-single-stim	s373	False
415.77	0.1	0.672	416.442	0	PA_without_intermediate	test	ward_and_allport	89	32.0	0.672	to_board	poldrack-single-stim	s373	False
416.451	0.1	1.518	417.969	0	PA_without_intermediate	test	ward_and_allport	82	32.0	1.518	to_hand	poldrack-single-stim	s373	False
417.97	0.1	0.638	418.608	0	PA_without_intermediate	test	ward_and_allport	71	32.0	0.638	to_board	poldrack-single-stim	s373	False
418.619	0.1	0.585	419.204	0	PA_without_intermediate	test	ward_and_allport	82	32.0	0.585	to_hand	poldrack-single-stim	s373	False
419.205	0.1	0.253	419.458	0	PA_without_intermediate	test	ward_and_allport	89	32.0	0.253	to_board	poldrack-single-stim	s373	False
419.469	1.0	2.816	419.468	0	PA_without_intermediate	test	ward_and_allport	-1	32.0	n/a	feedback	poldrack-single-stim	s373	False
422.292	2.809	2.809	425.101	1	PA_with_intermediate	test	ward_and_allport	82	33.0	2.809	to_hand	poldrack-single-stim	s373	False
425.102	0.1	0.463	425.565	0	PA_with_intermediate	test	ward_and_allport	89	33.0	0.463	to_board	poldrack-single-stim	s373	False
425.572	0.1	1.257	426.829	0	PA_with_intermediate	test	ward_and_allport	82	33.0	1.257	to_hand	poldrack-single-stim	s373	False
426.829	0.1	0.625	427.454	0	PA_with_intermediate	test	ward_and_allport	71	33.0	0.625	to_board	poldrack-single-stim	s373	False
427.462	0.1	3.917	431.379	0	PA_with_intermediate	test	ward_and_allport	89	33.0	3.917	to_hand	poldrack-single-stim	s373	False
431.381	0.1	0.225	431.606	0	PA_with_intermediate	test	ward_and_allport	71	33.0	0.225	to_board	poldrack-single-stim	s373	False
431.615	0.1	2.098	433.713	0	PA_with_intermediate	test	ward_and_allport	71	33.0	2.098	to_hand	poldrack-single-stim	s373	False
433.714	0.1	0.308	434.022	0	PA_with_intermediate	test	ward_and_allport	82	33.0	0.308	to_board	poldrack-single-stim	s373	False
434.032	1.0	2.952	434.031	0	PA_with_intermediate	test	ward_and_allport	-1	33.0	n/a	feedback	poldrack-single-stim	s373	False
436.991	5.277	5.277	442.268	1	PA_with_intermediate	test	ward_and_allport	71	34.0	5.277	to_hand	poldrack-single-stim	s373	False
442.269	0.1	0.347	442.616	0	PA_with_intermediate	test	ward_and_allport	89	34.0	0.347	to_board	poldrack-single-stim	s373	False
442.625	0.1	0.463	443.088	0	PA_with_intermediate	test	ward_and_allport	71	34.0	0.463	to_hand	poldrack-single-stim	s373	False
443.09	0.1	0.427	443.517	0	PA_with_intermediate	test	ward_and_allport	82	34.0	0.427	to_board	poldrack-single-stim	s373	False
443.527	0.1	0.395	443.922	0	PA_with_intermediate	test	ward_and_allport	89	34.0	0.395	to_hand	poldrack-single-stim	s373	False
443.924	0.1	0.291	444.215	0	PA_with_intermediate	test	ward_and_allport	82	34.0	0.291	to_board	poldrack-single-stim	s373	False
444.224	1.0	2.136	444.223	0	PA_with_intermediate	test	ward_and_allport	-1	34.0	n/a	feedback	poldrack-single-stim	s373	False
446.369	3.575	3.575	449.944	1	PA_without_intermediate	test	ward_and_allport	89	35.0	3.575	to_hand	poldrack-single-stim	s373	False
449.945	0.1	0.384	450.329	0	PA_without_intermediate	test	ward_and_allport	82	35.0	0.384	to_board	poldrack-single-stim	s373	False
450.338	0.1	0.334	450.672	0	PA_without_intermediate	test	ward_and_allport	89	35.0	0.334	to_hand	poldrack-single-stim	s373	False
450.673	0.1	0.377	451.05	0	PA_without_intermediate	test	ward_and_allport	82	35.0	0.377	to_board	poldrack-single-stim	s373	False
451.058	0.1	0.785	451.843	0	PA_without_intermediate	test	ward_and_allport	89	35.0	0.785	to_hand	poldrack-single-stim	s373	False
451.844	0.1	0.213	452.057	0	PA_without_intermediate	test	ward_and_allport	71	35.0	0.213	to_board	poldrack-single-stim	s373	False
452.07	1.0	2.68	452.069	0	PA_without_intermediate	test	ward_and_allport	-1	35.0	n/a	feedback	poldrack-single-stim	s373	False
454.759	2.555	2.555	457.314	1	PA_without_intermediate	test	ward_and_allport	89	36.0	2.555	to_hand	poldrack-single-stim	s373	False
457.315	0.1	0.322	457.637	0	PA_without_intermediate	test	ward_and_allport	71	36.0	0.322	to_board	poldrack-single-stim	s373	False
457.645	0.1	0.36	458.005	0	PA_without_intermediate	test	ward_and_allport	89	36.0	0.36	to_hand	poldrack-single-stim	s373	False
458.005	0.1	0.397	458.402	0	PA_without_intermediate	test	ward_and_allport	71	36.0	0.397	to_board	poldrack-single-stim	s373	False
458.411	0.1	0.537	458.948	0	PA_without_intermediate	test	ward_and_allport	89	36.0	0.537	to_hand	poldrack-single-stim	s373	False
458.949	0.1	0.357	459.306	0	PA_without_intermediate	test	ward_and_allport	82	36.0	0.357	to_board	poldrack-single-stim	s373	False
459.319	1.0	3.088	459.318	0	PA_without_intermediate	test	ward_and_allport	-1	36.0	n/a	feedback	poldrack-single-stim	s373	False
462.415	3.637	3.637	466.052	1	PA_with_intermediate	test	ward_and_allport	82	37.0	3.637	to_hand	poldrack-single-stim	s373	False
466.053	0.1	0.635	466.688	0	PA_with_intermediate	test	ward_and_allport	89	37.0	0.635	to_board	poldrack-single-stim	s373	False
466.695	0.1	0.54	467.235	0	PA_with_intermediate	test	ward_and_allport	82	37.0	0.54	to_hand	poldrack-single-stim	s373	False
467.237	0.1	0.865	468.102	0	PA_with_intermediate	test	ward_and_allport	71	37.0	0.865	to_board	poldrack-single-stim	s373	False
468.11	0.1	0.662	468.772	0	PA_with_intermediate	test	ward_and_allport	89	37.0	0.662	to_hand	poldrack-single-stim	s373	False
468.772	0.1	0.192	468.964	0	PA_with_intermediate	test	ward_and_allport	71	37.0	0.192	to_board	poldrack-single-stim	s373	False
468.975	1.0	2.0	468.974	0	PA_with_intermediate	test	ward_and_allport	-1	37.0	n/a	feedback	poldrack-single-stim	s373	False
470.985	2.713	2.713	473.698	1	PA_without_intermediate	test	ward_and_allport	71	38.0	2.713	to_hand	poldrack-single-stim	s373	False
473.699	0.1	0.847	474.546	0	PA_without_intermediate	test	ward_and_allport	89	38.0	0.847	to_board	poldrack-single-stim	s373	False
474.556	0.1	0.858	475.414	0	PA_without_intermediate	test	ward_and_allport	71	38.0	0.858	to_hand	poldrack-single-stim	s373	False
475.415	0.1	0.367	475.782	0	PA_without_intermediate	test	ward_and_allport	89	38.0	0.367	to_board	poldrack-single-stim	s373	False
475.789	0.1	0.6	476.389	0	PA_without_intermediate	test	ward_and_allport	71	38.0	0.6	to_hand	poldrack-single-stim	s373	False
476.389	0.1	0.276	476.665	0	PA_without_intermediate	test	ward_and_allport	82	38.0	0.276	to_board	poldrack-single-stim	s373	False
476.677	1.0	2.0	476.676	0	PA_without_intermediate	test	ward_and_allport	-1	38.0	n/a	feedback	poldrack-single-stim	s373	False
478.682	2.62	2.62	481.302	1	PA_without_intermediate	test	ward_and_allport	89	39.0	2.62	to_hand	poldrack-single-stim	s373	False
481.303	0.1	0.469	481.772	0	PA_without_intermediate	test	ward_and_allport	82	39.0	0.469	to_board	poldrack-single-stim	s373	False
481.779	0.1	0.651	482.43	0	PA_without_intermediate	test	ward_and_allport	89	39.0	0.651	to_hand	poldrack-single-stim	s373	False
482.43	0.1	0.367	482.797	0	PA_without_intermediate	test	ward_and_allport	71	39.0	0.367	to_board	poldrack-single-stim	s373	False
482.807	0.1	0.342	483.149	0	PA_without_intermediate	test	ward_and_allport	89	39.0	0.342	to_hand	poldrack-single-stim	s373	False
483.15	0.1	0.253	483.403	0	PA_without_intermediate	test	ward_and_allport	82	39.0	0.253	to_board	poldrack-single-stim	s373	False
483.413	1.0	2.0	483.412	0	PA_without_intermediate	test	ward_and_allport	-1	39.0	n/a	feedback	poldrack-single-stim	s373	False
485.419	4.468	4.468	489.887	1	PA_with_intermediate	test	ward_and_allport	89	40.0	4.468	to_hand	poldrack-single-stim	s373	False
489.889	0.1	0.354	490.243	0	PA_with_intermediate	test	ward_and_allport	71	40.0	0.354	to_board	poldrack-single-stim	s373	False
490.25	0.1	0.386	490.636	0	PA_with_intermediate	test	ward_and_allport	89	40.0	0.386	to_hand	poldrack-single-stim	s373	False
490.637	0.1	0.368	491.005	0	PA_with_intermediate	test	ward_and_allport	82	40.0	0.368	to_board	poldrack-single-stim	s373	False
491.015	0.1	0.391	491.406	0	PA_with_intermediate	test	ward_and_allport	71	40.0	0.391	to_hand	poldrack-single-stim	s373	False
491.407	0.1	0.333	491.74	0	PA_with_intermediate	test	ward_and_allport	82	40.0	0.333	to_board	poldrack-single-stim	s373	False
491.75	1.0	2.544	491.749	0	PA_with_intermediate	test	ward_and_allport	-1	40.0	n/a	feedback	poldrack-single-stim	s373	False
494.302	2.551	2.551	496.853	1	PA_without_intermediate	test	ward_and_allport	82	41.0	2.551	to_hand	poldrack-single-stim	s373	False
496.854	0.1	0.467	497.321	0	PA_without_intermediate	test	ward_and_allport	71	41.0	0.467	to_board	poldrack-single-stim	s373	False
497.332	0.1	0.375	497.707	0	PA_without_intermediate	test	ward_and_allport	82	41.0	0.375	to_hand	poldrack-single-stim	s373	False
497.709	0.1	0.449	498.158	0	PA_without_intermediate	test	ward_and_allport	89	41.0	0.449	to_board	poldrack-single-stim	s373	False
498.167	0.1	0.834	499.001	0	PA_without_intermediate	test	ward_and_allport	82	41.0	0.834	to_hand	poldrack-single-stim	s373	False
499.003	0.1	0.3	499.303	0	PA_without_intermediate	test	ward_and_allport	71	41.0	0.3	to_board	poldrack-single-stim	s373	False
499.313	1.0	2.272	499.312	0	PA_without_intermediate	test	ward_and_allport	-1	41.0	n/a	feedback	poldrack-single-stim	s373	False
501.591	5.513	5.513	507.104	1	PA_with_intermediate	test	ward_and_allport	71	42.0	5.513	to_hand	poldrack-single-stim	s373	False
507.106	0.1	0.439	507.545	0	PA_with_intermediate	test	ward_and_allport	82	42.0	0.439	to_board	poldrack-single-stim	s373	False
507.552	0.1	0.429	507.981	0	PA_with_intermediate	test	ward_and_allport	71	42.0	0.429	to_hand	poldrack-single-stim	s373	False
507.982	0.1	0.426	508.408	0	PA_with_intermediate	test	ward_and_allport	89	42.0	0.426	to_board	poldrack-single-stim	s373	False
508.417	0.1	0.352	508.769	0	PA_with_intermediate	test	ward_and_allport	82	42.0	0.352	to_hand	poldrack-single-stim	s373	False
508.77	0.1	0.395	509.165	0	PA_with_intermediate	test	ward_and_allport	89	42.0	0.395	to_board	poldrack-single-stim	s373	False
509.177	1.0	4.04	509.176	0	PA_with_intermediate	test	ward_and_allport	-1	42.0	n/a	feedback	poldrack-single-stim	s373	False
513.228	4.096	4.096	517.324	1	PA_with_intermediate	test	ward_and_allport	89	43.0	4.096	to_hand	poldrack-single-stim	s373	False
517.325	0.1	0.368	517.693	0	PA_with_intermediate	test	ward_and_allport	82	43.0	0.368	to_board	poldrack-single-stim	s373	False
517.702	0.1	0.437	518.139	0	PA_with_intermediate	test	ward_and_allport	89	43.0	0.437	to_hand	poldrack-single-stim	s373	False
518.14	0.1	0.374	518.514	0	PA_with_intermediate	test	ward_and_allport	71	43.0	0.374	to_board	poldrack-single-stim	s373	False
518.524	0.1	0.316	518.84	0	PA_with_intermediate	test	ward_and_allport	82	43.0	0.316	to_hand	poldrack-single-stim	s373	False
518.841	0.1	0.326	519.167	0	PA_with_intermediate	test	ward_and_allport	71	43.0	0.326	to_board	poldrack-single-stim	s373	False
519.18	1.0	2.272	519.179	0	PA_with_intermediate	test	ward_and_allport	-1	43.0	n/a	feedback	poldrack-single-stim	s373	False
521.459	4.112	4.112	525.571	1	PA_with_intermediate	test	ward_and_allport	71	44.0	4.112	to_hand	poldrack-single-stim	s373	False
525.573	0.1	0.37	525.943	0	PA_with_intermediate	test	ward_and_allport	89	44.0	0.37	to_board	poldrack-single-stim	s373	False
525.951	0.1	0.577	526.528	0	PA_with_intermediate	test	ward_and_allport	71	44.0	0.577	to_hand	poldrack-single-stim	s373	False
526.528	0.1	0.391	526.919	0	PA_with_intermediate	test	ward_and_allport	82	44.0	0.391	to_board	poldrack-single-stim	s373	False
526.929	0.1	0.297	527.226	0	PA_with_intermediate	test	ward_and_allport	89	44.0	0.297	to_hand	poldrack-single-stim	s373	False
527.227	0.1	0.231	527.458	0	PA_with_intermediate	test	ward_and_allport	71	44.0	0.231	to_board	poldrack-single-stim	s373	False
527.469	1.0	2.136	527.468	0	PA_with_intermediate	test	ward_and_allport	-1	44.0	n/a	feedback	poldrack-single-stim	s373	False
534.617	4.392	4.392	539.009	1	PA_with_intermediate	test	ward_and_allport	82	45.0	4.392	to_hand	poldrack-single-stim	s373	False
539.01	0.1	0.579	539.589	0	PA_with_intermediate	test	ward_and_allport	71	45.0	0.579	to_board	poldrack-single-stim	s373	False
539.598	0.1	0.562	540.16	0	PA_with_intermediate	test	ward_and_allport	82	45.0	0.562	to_hand	poldrack-single-stim	s373	False
540.162	0.1	0.492	540.654	0	PA_with_intermediate	test	ward_and_allport	89	45.0	0.492	to_board	poldrack-single-stim	s373	False
540.665	0.1	0.514	541.179	0	PA_with_intermediate	test	ward_and_allport	71	45.0	0.514	to_hand	poldrack-single-stim	s373	False
541.179	0.1	0.367	541.546	0	PA_with_intermediate	test	ward_and_allport	82	45.0	0.367	to_board	poldrack-single-stim	s373	False
541.56	1.0	2.0	541.559	0	PA_with_intermediate	test	ward_and_allport	-1	45.0	n/a	feedback	poldrack-single-stim	s373	False
543.57	2.674	2.674	546.244	1	PA_with_intermediate	test	ward_and_allport	82	46.0	2.674	to_hand	poldrack-single-stim	s373	False
546.245	0.1	1.188	547.433	0	PA_with_intermediate	test	ward_and_allport	71	46.0	1.188	to_board	poldrack-single-stim	s373	False
547.44	0.1	1.328	548.768	0	PA_with_intermediate	test	ward_and_allport	82	46.0	1.328	to_hand	poldrack-single-stim	s373	False
548.768	0.1	0.745	549.513	0	PA_with_intermediate	test	ward_and_allport	89	46.0	0.745	to_board	poldrack-single-stim	s373	False
549.522	0.1	1.225	550.747	0	PA_with_intermediate	test	ward_and_allport	71	46.0	1.225	to_hand	poldrack-single-stim	s373	False
550.748	0.1	0.319	551.067	0	PA_with_intermediate	test	ward_and_allport	89	46.0	0.319	to_board	poldrack-single-stim	s373	False
551.081	1.0	2.0	551.08	0	PA_with_intermediate	test	ward_and_allport	-1	46.0	n/a	feedback	poldrack-single-stim	s373	False
553.091	3.667	3.667	556.758	1	PA_without_intermediate	test	ward_and_allport	71	47.0	3.667	to_hand	poldrack-single-stim	s373	False
556.759	0.1	0.411	557.17	0	PA_without_intermediate	test	ward_and_allport	82	47.0	0.411	to_board	poldrack-single-stim	s373	False
557.182	0.1	0.453	557.635	0	PA_without_intermediate	test	ward_and_allport	71	47.0	0.453	to_hand	poldrack-single-stim	s373	False
557.635	0.1	0.392	558.027	0	PA_without_intermediate	test	ward_and_allport	82	47.0	0.392	to_board	poldrack-single-stim	s373	False
558.036	0.1	0.44	558.476	0	PA_without_intermediate	test	ward_and_allport	71	47.0	0.44	to_hand	poldrack-single-stim	s373	False
558.478	0.1	0.31	558.788	0	PA_without_intermediate	test	ward_and_allport	89	47.0	0.31	to_board	poldrack-single-stim	s373	False
558.801	1.0	2.408	558.8	0	PA_without_intermediate	test	ward_and_allport	-1	47.0	n/a	feedback	poldrack-single-stim	s373	False
