onset	duration	block_duration	movement_onset	planning	condition	exp_stage	experiment_exp_id	key_press	problem_id	response_time	trial_id	trial_type	worker_id	junk
3.013	6.099	6.099	9.112	1	UA_with_intermediate	practice	ward_and_allport	71	0.0	6.099	to_hand	poldrack-single-stim	s553	False
9.113	0.1	1.435	10.548	0	UA_with_intermediate	practice	ward_and_allport	89	0.0	1.435	to_board	poldrack-single-stim	s553	False
10.551	0.1	1.635	12.186	0	UA_with_intermediate	practice	ward_and_allport	89	0.0	1.635	to_hand	poldrack-single-stim	s553	False
12.187	0.1	1.594	13.781	0	UA_with_intermediate	practice	ward_and_allport	82	0.0	1.594	to_board	poldrack-single-stim	s553	False
13.783	0.1	1.543	15.326	0	UA_with_intermediate	practice	ward_and_allport	71	0.0	1.543	to_hand	poldrack-single-stim	s553	False
15.326	0.1	0.849	16.175	0	UA_with_intermediate	practice	ward_and_allport	89	0.0	0.849	to_board	poldrack-single-stim	s553	False
16.177	0.1	2.105	18.282	0	UA_with_intermediate	practice	ward_and_allport	82	0.0	2.105	to_hand	poldrack-single-stim	s553	False
18.282	0.1	1.029	19.311	0	UA_with_intermediate	practice	ward_and_allport	89	0.0	1.029	to_board	poldrack-single-stim	s553	False
19.317	1.0	2.5	19.316	0	UA_with_intermediate	practice	ward_and_allport	-1	0.0	n/a	feedback	poldrack-single-stim	s553	False
21.82	3.821	3.821	25.641	1	UA_with_intermediate	practice	ward_and_allport	89	1.0	3.821	to_hand	poldrack-single-stim	s553	False
25.641	0.1	1.1	26.741	0	UA_with_intermediate	practice	ward_and_allport	82	1.0	1.1	to_board	poldrack-single-stim	s553	False
26.742	0.1	1.013	27.755	0	UA_with_intermediate	practice	ward_and_allport	71	1.0	1.013	to_hand	poldrack-single-stim	s553	False
27.756	0.1	0.512	28.268	0	UA_with_intermediate	practice	ward_and_allport	89	1.0	0.512	to_board	poldrack-single-stim	s553	False
28.27	0.1	1.001	29.271	0	UA_with_intermediate	practice	ward_and_allport	82	1.0	1.001	to_hand	poldrack-single-stim	s553	False
29.272	0.1	0.503	29.775	0	UA_with_intermediate	practice	ward_and_allport	89	1.0	0.503	to_board	poldrack-single-stim	s553	False
29.781	1.0	2.1	29.78	0	UA_with_intermediate	practice	ward_and_allport	-1	1.0	n/a	feedback	poldrack-single-stim	s553	False
31.883	2.494	2.494	34.377	1	UA_without_intermediate	practice	ward_and_allport	82	2.0	2.494	to_hand	poldrack-single-stim	s553	False
34.379	0.1	1.641	36.02	0	UA_without_intermediate	practice	ward_and_allport	89	2.0	1.641	to_board	poldrack-single-stim	s553	False
36.023	0.1	1.124	37.147	0	UA_without_intermediate	practice	ward_and_allport	71	2.0	1.124	to_hand	poldrack-single-stim	s553	False
37.147	0.1	0.905	38.052	0	UA_without_intermediate	practice	ward_and_allport	89	2.0	0.905	to_board	poldrack-single-stim	s553	False
38.055	0.1	0.57	38.625	0	UA_without_intermediate	practice	ward_and_allport	71	2.0	0.57	to_hand	poldrack-single-stim	s553	False
38.626	0.1	0.463	39.089	0	UA_without_intermediate	practice	ward_and_allport	89	2.0	0.463	to_board	poldrack-single-stim	s553	False
39.095	1.0	2.2	39.094	0	UA_without_intermediate	practice	ward_and_allport	-1	2.0	n/a	feedback	poldrack-single-stim	s553	False
41.297	2.138	2.138	43.435	1	UA_without_intermediate	practice	ward_and_allport	71	3.0	2.138	to_hand	poldrack-single-stim	s553	False
43.437	0.1	0.87	44.307	0	UA_without_intermediate	practice	ward_and_allport	89	3.0	0.87	to_board	poldrack-single-stim	s553	False
44.31	0.1	1.33	45.64	0	UA_without_intermediate	practice	ward_and_allport	71	3.0	1.33	to_hand	poldrack-single-stim	s553	False
45.641	0.1	3.501	49.142	0	UA_without_intermediate	practice	ward_and_allport	71	3.0	3.501	to_board	poldrack-single-stim	s553	False
49.144	0.1	0.584	49.728	0	UA_without_intermediate	practice	ward_and_allport	82	3.0	0.584	to_hand	poldrack-single-stim	s553	False
49.728	0.1	0.553	50.281	0	UA_without_intermediate	practice	ward_and_allport	89	3.0	0.553	to_board	poldrack-single-stim	s553	False
50.283	0.1	0.6	50.883	0	UA_without_intermediate	practice	ward_and_allport	71	3.0	0.6	to_hand	poldrack-single-stim	s553	False
50.885	0.1	0.415	51.3	0	UA_without_intermediate	practice	ward_and_allport	89	3.0	0.415	to_board	poldrack-single-stim	s553	False
51.306	1.0	2.0	51.305	0	UA_without_intermediate	practice	ward_and_allport	-1	3.0	n/a	feedback	poldrack-single-stim	s553	False
55.312	6.754	6.754	62.066	1	PA_with_intermediate	test	ward_and_allport	82	0.0	6.754	to_hand	poldrack-single-stim	s553	False
62.067	0.1	1.183	63.25	0	PA_with_intermediate	test	ward_and_allport	71	0.0	1.183	to_board	poldrack-single-stim	s553	False
63.252	0.1	2.83	66.082	0	PA_with_intermediate	test	ward_and_allport	82	0.0	2.83	to_hand	poldrack-single-stim	s553	False
66.083	0.1	1.132	67.215	0	PA_with_intermediate	test	ward_and_allport	89	0.0	1.132	to_board	poldrack-single-stim	s553	False
67.218	0.1	0.93	68.148	0	PA_with_intermediate	test	ward_and_allport	71	0.0	0.93	to_hand	poldrack-single-stim	s553	False
68.149	0.1	1.707	69.856	0	PA_with_intermediate	test	ward_and_allport	89	0.0	1.707	to_board	poldrack-single-stim	s553	False
69.859	1.0	3.768	69.858	0	PA_with_intermediate	test	ward_and_allport	-1	0.0	n/a	feedback	poldrack-single-stim	s553	False
73.629	3.964	3.964	77.593	1	PA_with_intermediate	test	ward_and_allport	89	1.0	3.964	to_hand	poldrack-single-stim	s553	False
77.594	0.1	1.074	78.668	0	PA_with_intermediate	test	ward_and_allport	71	1.0	1.074	to_board	poldrack-single-stim	s553	False
78.67	0.1	0.834	79.504	0	PA_with_intermediate	test	ward_and_allport	89	1.0	0.834	to_hand	poldrack-single-stim	s553	False
79.505	0.1	1.569	81.074	0	PA_with_intermediate	test	ward_and_allport	82	1.0	1.569	to_board	poldrack-single-stim	s553	False
81.077	0.1	0.864	81.941	0	PA_with_intermediate	test	ward_and_allport	71	1.0	0.864	to_hand	poldrack-single-stim	s553	False
81.942	0.1	0.598	82.54	0	PA_with_intermediate	test	ward_and_allport	82	1.0	0.598	to_board	poldrack-single-stim	s553	False
82.547	1.0	2.68	82.546	0	PA_with_intermediate	test	ward_and_allport	-1	1.0	n/a	feedback	poldrack-single-stim	s553	False
85.23	2.441	2.441	87.671	1	PA_without_intermediate	test	ward_and_allport	71	2.0	2.441	to_hand	poldrack-single-stim	s553	False
87.671	0.1	1.345	89.016	0	PA_without_intermediate	test	ward_and_allport	82	2.0	1.345	to_board	poldrack-single-stim	s553	False
89.018	0.1	1.124	90.142	0	PA_without_intermediate	test	ward_and_allport	71	2.0	1.124	to_hand	poldrack-single-stim	s553	False
90.143	0.1	1.197	91.34	0	PA_without_intermediate	test	ward_and_allport	89	2.0	1.197	to_board	poldrack-single-stim	s553	False
91.342	0.1	0.655	91.997	0	PA_without_intermediate	test	ward_and_allport	71	2.0	0.655	to_hand	poldrack-single-stim	s553	False
91.999	0.1	0.591	92.59	0	PA_without_intermediate	test	ward_and_allport	82	2.0	0.591	to_board	poldrack-single-stim	s553	False
92.595	1.0	3.224	92.594	0	PA_without_intermediate	test	ward_and_allport	-1	2.0	n/a	feedback	poldrack-single-stim	s553	False
95.822	3.48	3.48	99.302	1	PA_without_intermediate	test	ward_and_allport	89	3.0	3.48	to_hand	poldrack-single-stim	s553	False
99.303	0.1	0.593	99.896	0	PA_without_intermediate	test	ward_and_allport	71	3.0	0.593	to_board	poldrack-single-stim	s553	False
99.898	0.1	1.405	101.303	0	PA_without_intermediate	test	ward_and_allport	89	3.0	1.405	to_hand	poldrack-single-stim	s553	False
101.303	0.1	1.003	102.306	0	PA_without_intermediate	test	ward_and_allport	71	3.0	1.003	to_board	poldrack-single-stim	s553	False
102.308	0.1	0.961	103.269	0	PA_without_intermediate	test	ward_and_allport	89	3.0	0.961	to_hand	poldrack-single-stim	s553	False
103.27	0.1	0.935	104.205	0	PA_without_intermediate	test	ward_and_allport	82	3.0	0.935	to_board	poldrack-single-stim	s553	False
104.209	1.0	3.36	104.208	0	PA_without_intermediate	test	ward_and_allport	-1	3.0	n/a	feedback	poldrack-single-stim	s553	False
107.572	2.418	2.418	109.99	1	PA_without_intermediate	test	ward_and_allport	71	4.0	2.418	to_hand	poldrack-single-stim	s553	False
109.991	0.1	0.527	110.518	0	PA_without_intermediate	test	ward_and_allport	89	4.0	0.527	to_board	poldrack-single-stim	s553	False
110.52	0.1	0.795	111.315	0	PA_without_intermediate	test	ward_and_allport	71	4.0	0.795	to_hand	poldrack-single-stim	s553	False
111.317	0.1	0.524	111.841	0	PA_without_intermediate	test	ward_and_allport	89	4.0	0.524	to_board	poldrack-single-stim	s553	False
111.844	0.1	1.183	113.027	0	PA_without_intermediate	test	ward_and_allport	71	4.0	1.183	to_hand	poldrack-single-stim	s553	False
113.028	0.1	1.027	114.055	0	PA_without_intermediate	test	ward_and_allport	82	4.0	1.027	to_board	poldrack-single-stim	s553	False
114.06	1.0	2.0	114.059	0	PA_without_intermediate	test	ward_and_allport	-1	4.0	n/a	feedback	poldrack-single-stim	s553	False
116.064	1.769	1.769	117.833	1	PA_without_intermediate	test	ward_and_allport	71	5.0	1.769	to_hand	poldrack-single-stim	s553	False
117.833	0.1	0.795	118.628	0	PA_without_intermediate	test	ward_and_allport	89	5.0	0.795	to_board	poldrack-single-stim	s553	False
118.632	0.1	0.7	119.332	0	PA_without_intermediate	test	ward_and_allport	71	5.0	0.7	to_hand	poldrack-single-stim	s553	False
119.333	0.1	0.789	120.122	0	PA_without_intermediate	test	ward_and_allport	89	5.0	0.789	to_board	poldrack-single-stim	s553	False
120.125	0.1	0.655	120.78	0	PA_without_intermediate	test	ward_and_allport	71	5.0	0.655	to_hand	poldrack-single-stim	s553	False
120.781	0.1	0.779	121.56	0	PA_without_intermediate	test	ward_and_allport	82	5.0	0.779	to_board	poldrack-single-stim	s553	False
121.567	1.0	2.408	121.566	0	PA_without_intermediate	test	ward_and_allport	-1	5.0	n/a	feedback	poldrack-single-stim	s553	False
123.978	2.599	2.599	126.577	1	PA_with_intermediate	test	ward_and_allport	89	6.0	2.599	to_hand	poldrack-single-stim	s553	False
126.578	0.1	0.768	127.346	0	PA_with_intermediate	test	ward_and_allport	71	6.0	0.768	to_board	poldrack-single-stim	s553	False
127.349	0.1	0.603	127.952	0	PA_with_intermediate	test	ward_and_allport	89	6.0	0.603	to_hand	poldrack-single-stim	s553	False
127.952	0.1	0.797	128.749	0	PA_with_intermediate	test	ward_and_allport	82	6.0	0.797	to_board	poldrack-single-stim	s553	False
128.753	0.1	0.551	129.304	0	PA_with_intermediate	test	ward_and_allport	71	6.0	0.551	to_hand	poldrack-single-stim	s553	False
129.305	0.1	0.594	129.899	0	PA_with_intermediate	test	ward_and_allport	82	6.0	0.594	to_board	poldrack-single-stim	s553	False
129.903	1.0	2.136	129.902	0	PA_with_intermediate	test	ward_and_allport	-1	6.0	n/a	feedback	poldrack-single-stim	s553	False
132.042	3.344	3.344	135.386	1	PA_without_intermediate	test	ward_and_allport	82	7.0	3.344	to_hand	poldrack-single-stim	s553	False
135.387	0.1	0.739	136.126	0	PA_without_intermediate	test	ward_and_allport	71	7.0	0.739	to_board	poldrack-single-stim	s553	False
136.129	0.1	1.626	137.755	0	PA_without_intermediate	test	ward_and_allport	82	7.0	1.626	to_hand	poldrack-single-stim	s553	False
137.756	0.1	0.865	138.621	0	PA_without_intermediate	test	ward_and_allport	71	7.0	0.865	to_board	poldrack-single-stim	s553	False
138.624	0.1	0.843	139.467	0	PA_without_intermediate	test	ward_and_allport	82	7.0	0.843	to_hand	poldrack-single-stim	s553	False
139.468	0.1	0.478	139.946	0	PA_without_intermediate	test	ward_and_allport	89	7.0	0.478	to_board	poldrack-single-stim	s553	False
139.952	1.0	5.128	139.951	0	PA_without_intermediate	test	ward_and_allport	-1	7.0	n/a	feedback	poldrack-single-stim	s553	False
145.083	5.661	5.661	150.744	1	PA_without_intermediate	test	ward_and_allport	82	8.0	5.661	to_hand	poldrack-single-stim	s553	False
150.745	0.1	1.433	152.178	0	PA_without_intermediate	test	ward_and_allport	71	8.0	1.433	to_board	poldrack-single-stim	s553	False
152.182	0.1	0.862	153.044	0	PA_without_intermediate	test	ward_and_allport	82	8.0	0.862	to_hand	poldrack-single-stim	s553	False
153.045	0.1	0.63	153.675	0	PA_without_intermediate	test	ward_and_allport	89	8.0	0.63	to_board	poldrack-single-stim	s553	False
153.677	0.1	0.874	154.551	0	PA_without_intermediate	test	ward_and_allport	82	8.0	0.874	to_hand	poldrack-single-stim	s553	False
154.553	0.1	0.598	155.151	0	PA_without_intermediate	test	ward_and_allport	71	8.0	0.598	to_board	poldrack-single-stim	s553	False
155.156	1.0	2.136	155.155	0	PA_without_intermediate	test	ward_and_allport	-1	8.0	n/a	feedback	poldrack-single-stim	s553	False
157.295	3.032	3.032	160.327	1	PA_without_intermediate	test	ward_and_allport	82	9.0	3.032	to_hand	poldrack-single-stim	s553	False
160.329	0.1	0.815	161.144	0	PA_without_intermediate	test	ward_and_allport	89	9.0	0.815	to_board	poldrack-single-stim	s553	False
161.146	0.1	0.61	161.756	0	PA_without_intermediate	test	ward_and_allport	82	9.0	0.61	to_hand	poldrack-single-stim	s553	False
161.758	0.1	0.54	162.298	0	PA_without_intermediate	test	ward_and_allport	89	9.0	0.54	to_board	poldrack-single-stim	s553	False
162.301	0.1	1.696	163.997	0	PA_without_intermediate	test	ward_and_allport	82	9.0	1.696	to_hand	poldrack-single-stim	s553	False
163.998	0.1	0.558	164.556	0	PA_without_intermediate	test	ward_and_allport	71	9.0	0.558	to_board	poldrack-single-stim	s553	False
164.564	1.0	5.264	164.563	0	PA_without_intermediate	test	ward_and_allport	-1	9.0	n/a	feedback	poldrack-single-stim	s553	False
169.833	5.056	5.056	174.889	1	PA_with_intermediate	test	ward_and_allport	71	10.0	5.056	to_hand	poldrack-single-stim	s553	False
174.89	0.1	0.512	175.402	0	PA_with_intermediate	test	ward_and_allport	89	10.0	0.512	to_board	poldrack-single-stim	s553	False
175.405	0.1	1.812	177.217	0	PA_with_intermediate	test	ward_and_allport	71	10.0	1.812	to_hand	poldrack-single-stim	s553	False
177.219	0.1	0.616	177.835	0	PA_with_intermediate	test	ward_and_allport	82	10.0	0.616	to_board	poldrack-single-stim	s553	False
177.841	0.1	0.92	178.761	0	PA_with_intermediate	test	ward_and_allport	89	10.0	0.92	to_hand	poldrack-single-stim	s553	False
178.763	0.1	0.725	179.488	0	PA_with_intermediate	test	ward_and_allport	82	10.0	0.725	to_board	poldrack-single-stim	s553	False
179.494	1.0	4.04	179.493	0	PA_with_intermediate	test	ward_and_allport	-1	10.0	n/a	feedback	poldrack-single-stim	s553	False
183.539	3.074	3.074	186.613	1	PA_with_intermediate	test	ward_and_allport	71	11.0	3.074	to_hand	poldrack-single-stim	s553	False
186.615	0.1	0.527	187.142	0	PA_with_intermediate	test	ward_and_allport	82	11.0	0.527	to_board	poldrack-single-stim	s553	False
187.147	0.1	0.995	188.142	0	PA_with_intermediate	test	ward_and_allport	71	11.0	0.995	to_hand	poldrack-single-stim	s553	False
188.143	0.1	0.382	188.525	0	PA_with_intermediate	test	ward_and_allport	89	11.0	0.382	to_board	poldrack-single-stim	s553	False
188.53	0.1	0.906	189.436	0	PA_with_intermediate	test	ward_and_allport	82	11.0	0.906	to_hand	poldrack-single-stim	s553	False
189.437	0.1	0.507	189.944	0	PA_with_intermediate	test	ward_and_allport	89	11.0	0.507	to_board	poldrack-single-stim	s553	False
189.952	1.0	2.136	189.951	0	PA_with_intermediate	test	ward_and_allport	-1	11.0	n/a	feedback	poldrack-single-stim	s553	False
192.093	5.28	5.28	197.373	1	PA_with_intermediate	test	ward_and_allport	82	12.0	5.28	to_hand	poldrack-single-stim	s553	False
197.374	0.1	2.621	199.995	0	PA_with_intermediate	test	ward_and_allport	71	12.0	2.621	to_board	poldrack-single-stim	s553	False
199.999	0.1	0.658	200.657	0	PA_with_intermediate	test	ward_and_allport	82	12.0	0.658	to_hand	poldrack-single-stim	s553	False
200.658	0.1	1.641	202.299	0	PA_with_intermediate	test	ward_and_allport	89	12.0	1.641	to_board	poldrack-single-stim	s553	False
202.303	0.1	0.658	202.961	0	PA_with_intermediate	test	ward_and_allport	71	12.0	0.658	to_hand	poldrack-single-stim	s553	False
202.963	0.1	0.552	203.515	0	PA_with_intermediate	test	ward_and_allport	82	12.0	0.552	to_board	poldrack-single-stim	s553	False
203.52	0.1	1.211	204.731	0	PA_with_intermediate	test	ward_and_allport	89	12.0	1.211	to_hand	poldrack-single-stim	s553	False
204.732	0.1	0.941	205.673	0	PA_with_intermediate	test	ward_and_allport	71	12.0	0.941	to_board	poldrack-single-stim	s553	False
205.682	1.0	2.408	205.681	0	PA_with_intermediate	test	ward_and_allport	-1	12.0	n/a	feedback	poldrack-single-stim	s553	False
208.094	4.02	4.02	212.114	1	PA_without_intermediate	test	ward_and_allport	82	13.0	4.02	to_hand	poldrack-single-stim	s553	False
212.115	0.1	1.634	213.749	0	PA_without_intermediate	test	ward_and_allport	89	13.0	1.634	to_board	poldrack-single-stim	s553	False
213.753	0.1	0.824	214.577	0	PA_without_intermediate	test	ward_and_allport	82	13.0	0.824	to_hand	poldrack-single-stim	s553	False
214.577	0.1	0.591	215.168	0	PA_without_intermediate	test	ward_and_allport	89	13.0	0.591	to_board	poldrack-single-stim	s553	False
215.172	0.1	1.746	216.918	0	PA_without_intermediate	test	ward_and_allport	82	13.0	1.746	to_hand	poldrack-single-stim	s553	False
216.919	0.1	0.857	217.776	0	PA_without_intermediate	test	ward_and_allport	71	13.0	0.857	to_board	poldrack-single-stim	s553	False
217.784	1.0	2.68	217.783	0	PA_without_intermediate	test	ward_and_allport	-1	13.0	n/a	feedback	poldrack-single-stim	s553	False
220.468	4.78	4.78	225.248	1	PA_with_intermediate	test	ward_and_allport	71	14.0	4.78	to_hand	poldrack-single-stim	s553	False
225.248	0.1	1.635	226.883	0	PA_with_intermediate	test	ward_and_allport	82	14.0	1.635	to_board	poldrack-single-stim	s553	False
226.888	0.1	0.618	227.506	0	PA_with_intermediate	test	ward_and_allport	71	14.0	0.618	to_hand	poldrack-single-stim	s553	False
227.506	0.1	0.458	227.964	0	PA_with_intermediate	test	ward_and_allport	89	14.0	0.458	to_board	poldrack-single-stim	s553	False
227.968	0.1	0.534	228.502	0	PA_with_intermediate	test	ward_and_allport	82	14.0	0.534	to_hand	poldrack-single-stim	s553	False
228.503	0.1	0.65	229.153	0	PA_with_intermediate	test	ward_and_allport	89	14.0	0.65	to_board	poldrack-single-stim	s553	False
229.163	1.0	4.72	229.162	0	PA_with_intermediate	test	ward_and_allport	-1	14.0	n/a	feedback	poldrack-single-stim	s553	False
238.89	4.8	4.8	243.69	1	PA_without_intermediate	test	ward_and_allport	89	15.0	4.8	to_hand	poldrack-single-stim	s553	False
243.691	0.1	0.558	244.249	0	PA_without_intermediate	test	ward_and_allport	71	15.0	0.558	to_board	poldrack-single-stim	s553	False
244.254	0.1	1.308	245.562	0	PA_without_intermediate	test	ward_and_allport	89	15.0	1.308	to_hand	poldrack-single-stim	s553	False
245.562	0.1	2.221	247.783	0	PA_without_intermediate	test	ward_and_allport	82	15.0	2.221	to_board	poldrack-single-stim	s553	False
247.786	0.1	0.525	248.311	0	PA_without_intermediate	test	ward_and_allport	89	15.0	0.525	to_hand	poldrack-single-stim	s553	False
248.312	0.1	0.561	248.873	0	PA_without_intermediate	test	ward_and_allport	71	15.0	0.561	to_board	poldrack-single-stim	s553	False
248.878	1.0	3.224	248.877	0	PA_without_intermediate	test	ward_and_allport	-1	15.0	n/a	feedback	poldrack-single-stim	s553	False
252.107	3.594	3.594	255.701	1	PA_without_intermediate	test	ward_and_allport	82	16.0	3.594	to_hand	poldrack-single-stim	s553	False
255.701	0.1	0.912	256.613	0	PA_without_intermediate	test	ward_and_allport	71	16.0	0.912	to_board	poldrack-single-stim	s553	False
256.617	0.1	0.724	257.341	0	PA_without_intermediate	test	ward_and_allport	82	16.0	0.724	to_hand	poldrack-single-stim	s553	False
257.343	0.1	0.573	257.916	0	PA_without_intermediate	test	ward_and_allport	89	16.0	0.573	to_board	poldrack-single-stim	s553	False
257.919	0.1	0.831	258.75	0	PA_without_intermediate	test	ward_and_allport	82	16.0	0.831	to_hand	poldrack-single-stim	s553	False
258.751	0.1	0.802	259.553	0	PA_without_intermediate	test	ward_and_allport	71	16.0	0.802	to_board	poldrack-single-stim	s553	False
259.559	1.0	2.272	259.558	0	PA_without_intermediate	test	ward_and_allport	-1	16.0	n/a	feedback	poldrack-single-stim	s553	False
261.835	2.912	2.912	264.747	1	PA_with_intermediate	test	ward_and_allport	82	17.0	2.912	to_hand	poldrack-single-stim	s553	False
264.748	0.1	0.651	265.399	0	PA_with_intermediate	test	ward_and_allport	71	17.0	0.651	to_board	poldrack-single-stim	s553	False
265.404	0.1	0.626	266.03	0	PA_with_intermediate	test	ward_and_allport	82	17.0	0.626	to_hand	poldrack-single-stim	s553	False
266.031	0.1	0.967	266.998	0	PA_with_intermediate	test	ward_and_allport	89	17.0	0.967	to_board	poldrack-single-stim	s553	False
267.003	0.1	4.783	271.786	0	PA_with_intermediate	test	ward_and_allport	71	17.0	4.783	to_hand	poldrack-single-stim	s553	False
271.787	0.1	0.557	272.344	0	PA_with_intermediate	test	ward_and_allport	82	17.0	0.557	to_board	poldrack-single-stim	s553	False
272.349	0.1	0.509	272.858	0	PA_with_intermediate	test	ward_and_allport	89	17.0	0.509	to_hand	poldrack-single-stim	s553	False
272.859	0.1	0.837	273.696	0	PA_with_intermediate	test	ward_and_allport	71	17.0	0.837	to_board	poldrack-single-stim	s553	False
273.7	0.1	0.712	274.412	0	PA_with_intermediate	test	ward_and_allport	82	17.0	0.712	to_hand	poldrack-single-stim	s553	False
274.414	0.1	1.255	275.669	0	PA_with_intermediate	test	ward_and_allport	71	17.0	1.255	to_board	poldrack-single-stim	s553	False
275.676	1.0	3.632	275.675	0	PA_with_intermediate	test	ward_and_allport	-1	17.0	n/a	feedback	poldrack-single-stim	s553	False
279.313	2.668	2.668	281.981	1	PA_without_intermediate	test	ward_and_allport	71	18.0	2.668	to_hand	poldrack-single-stim	s553	False
281.983	0.1	0.634	282.617	0	PA_without_intermediate	test	ward_and_allport	82	18.0	0.634	to_board	poldrack-single-stim	s553	False
282.621	0.1	0.617	283.238	0	PA_without_intermediate	test	ward_and_allport	71	18.0	0.617	to_hand	poldrack-single-stim	s553	False
283.239	0.1	0.754	283.993	0	PA_without_intermediate	test	ward_and_allport	82	18.0	0.754	to_board	poldrack-single-stim	s553	False
283.997	0.1	0.534	284.531	0	PA_without_intermediate	test	ward_and_allport	71	18.0	0.534	to_hand	poldrack-single-stim	s553	False
284.532	0.1	0.441	284.973	0	PA_without_intermediate	test	ward_and_allport	89	18.0	0.441	to_board	poldrack-single-stim	s553	False
284.98	1.0	2.408	284.979	0	PA_without_intermediate	test	ward_and_allport	-1	18.0	n/a	feedback	poldrack-single-stim	s553	False
287.392	2.3	2.3	289.692	1	PA_without_intermediate	test	ward_and_allport	89	19.0	2.3	to_hand	poldrack-single-stim	s553	False
289.693	0.1	0.669	290.362	0	PA_without_intermediate	test	ward_and_allport	82	19.0	0.669	to_board	poldrack-single-stim	s553	False
290.368	0.1	1.033	291.401	0	PA_without_intermediate	test	ward_and_allport	89	19.0	1.033	to_hand	poldrack-single-stim	s553	False
291.402	0.1	0.671	292.073	0	PA_without_intermediate	test	ward_and_allport	71	19.0	0.671	to_board	poldrack-single-stim	s553	False
292.077	0.1	0.817	292.894	0	PA_without_intermediate	test	ward_and_allport	89	19.0	0.817	to_hand	poldrack-single-stim	s553	False
292.896	0.1	0.49	293.386	0	PA_without_intermediate	test	ward_and_allport	82	19.0	0.49	to_board	poldrack-single-stim	s553	False
293.394	1.0	2.0	293.393	0	PA_without_intermediate	test	ward_and_allport	-1	19.0	n/a	feedback	poldrack-single-stim	s553	False
295.4	2.502	2.502	297.902	1	PA_with_intermediate	test	ward_and_allport	89	20.0	2.502	to_hand	poldrack-single-stim	s553	False
297.903	0.1	0.59	298.493	0	PA_with_intermediate	test	ward_and_allport	82	20.0	0.59	to_board	poldrack-single-stim	s553	False
298.498	0.1	0.508	299.006	0	PA_with_intermediate	test	ward_and_allport	89	20.0	0.508	to_hand	poldrack-single-stim	s553	False
299.006	0.1	0.554	299.56	0	PA_with_intermediate	test	ward_and_allport	71	20.0	0.554	to_board	poldrack-single-stim	s553	False
299.566	0.1	0.521	300.087	0	PA_with_intermediate	test	ward_and_allport	82	20.0	0.521	to_hand	poldrack-single-stim	s553	False
300.089	0.1	1.038	301.127	0	PA_with_intermediate	test	ward_and_allport	71	20.0	1.038	to_board	poldrack-single-stim	s553	False
301.139	1.0	2.0	301.138	0	PA_with_intermediate	test	ward_and_allport	-1	20.0	n/a	feedback	poldrack-single-stim	s553	False
303.144	2.941	2.941	306.085	1	PA_with_intermediate	test	ward_and_allport	71	21.0	2.941	to_hand	poldrack-single-stim	s553	False
306.085	0.1	0.472	306.557	0	PA_with_intermediate	test	ward_and_allport	89	21.0	0.472	to_board	poldrack-single-stim	s553	False
306.564	0.1	0.417	306.981	0	PA_with_intermediate	test	ward_and_allport	71	21.0	0.417	to_hand	poldrack-single-stim	s553	False
306.981	0.1	0.559	307.54	0	PA_with_intermediate	test	ward_and_allport	82	21.0	0.559	to_board	poldrack-single-stim	s553	False
307.545	0.1	0.426	307.971	0	PA_with_intermediate	test	ward_and_allport	89	21.0	0.426	to_hand	poldrack-single-stim	s553	False
307.973	0.1	0.705	308.678	0	PA_with_intermediate	test	ward_and_allport	82	21.0	0.705	to_board	poldrack-single-stim	s553	False
308.686	1.0	2.0	308.685	0	PA_with_intermediate	test	ward_and_allport	-1	21.0	n/a	feedback	poldrack-single-stim	s553	False
310.691	3.327	3.327	314.018	1	PA_with_intermediate	test	ward_and_allport	71	22.0	3.327	to_hand	poldrack-single-stim	s553	False
314.02	0.1	2.218	316.238	0	PA_with_intermediate	test	ward_and_allport	89	22.0	2.218	to_board	poldrack-single-stim	s553	False
316.243	0.1	0.921	317.164	0	PA_with_intermediate	test	ward_and_allport	71	22.0	0.921	to_hand	poldrack-single-stim	s553	False
317.165	0.1	0.589	317.754	0	PA_with_intermediate	test	ward_and_allport	82	22.0	0.589	to_board	poldrack-single-stim	s553	False
317.76	0.1	1.025	318.785	0	PA_with_intermediate	test	ward_and_allport	89	22.0	1.025	to_hand	poldrack-single-stim	s553	False
318.787	0.1	1.303	320.09	0	PA_with_intermediate	test	ward_and_allport	82	22.0	1.303	to_board	poldrack-single-stim	s553	False
320.095	0.1	1.715	321.81	0	PA_with_intermediate	test	ward_and_allport	71	22.0	1.715	to_hand	poldrack-single-stim	s553	False
321.812	0.1	0.435	322.247	0	PA_with_intermediate	test	ward_and_allport	89	22.0	0.435	to_board	poldrack-single-stim	s553	False
322.252	0.1	0.734	322.986	0	PA_with_intermediate	test	ward_and_allport	82	22.0	0.734	to_hand	poldrack-single-stim	s553	False
322.987	0.1	0.845	323.832	0	PA_with_intermediate	test	ward_and_allport	89	22.0	0.845	to_board	poldrack-single-stim	s553	False
323.839	0.1	2.32	326.159	0	PA_with_intermediate	test	ward_and_allport	89	22.0	2.32	to_hand	poldrack-single-stim	s553	False
326.16	0.1	0.84	327.0	0	PA_with_intermediate	test	ward_and_allport	82	22.0	0.84	to_board	poldrack-single-stim	s553	False
327.006	0.1	0.504	327.51	0	PA_with_intermediate	test	ward_and_allport	89	22.0	0.504	to_hand	poldrack-single-stim	s553	False
327.511	0.1	0.719	328.23	0	PA_with_intermediate	test	ward_and_allport	71	22.0	0.719	to_board	poldrack-single-stim	s553	False
328.236	0.1	0.678	328.914	0	PA_with_intermediate	test	ward_and_allport	82	22.0	0.678	to_hand	poldrack-single-stim	s553	False
328.915	0.1	0.684	329.599	0	PA_with_intermediate	test	ward_and_allport	71	22.0	0.684	to_board	poldrack-single-stim	s553	False
329.606	1.0	2.408	329.605	0	PA_with_intermediate	test	ward_and_allport	-1	22.0	n/a	feedback	poldrack-single-stim	s553	False
332.021	4.093	4.093	336.114	1	PA_without_intermediate	test	ward_and_allport	82	23.0	4.093	to_hand	poldrack-single-stim	s553	False
336.115	0.1	1.533	337.648	0	PA_without_intermediate	test	ward_and_allport	71	23.0	1.533	to_board	poldrack-single-stim	s553	False
337.654	0.1	0.702	338.356	0	PA_without_intermediate	test	ward_and_allport	82	23.0	0.702	to_hand	poldrack-single-stim	s553	False
338.358	0.1	4.874	343.232	0	PA_without_intermediate	test	ward_and_allport	71	23.0	4.874	to_board	poldrack-single-stim	s553	False
343.238	0.1	1.099	344.337	0	PA_without_intermediate	test	ward_and_allport	82	23.0	1.099	to_hand	poldrack-single-stim	s553	False
344.339	0.1	1.038	345.377	0	PA_without_intermediate	test	ward_and_allport	89	23.0	1.038	to_board	poldrack-single-stim	s553	False
345.385	1.0	2.816	345.384	0	PA_without_intermediate	test	ward_and_allport	-1	23.0	n/a	feedback	poldrack-single-stim	s553	False
348.207	3.609	3.609	351.816	1	PA_with_intermediate	test	ward_and_allport	89	24.0	3.609	to_hand	poldrack-single-stim	s553	False
351.818	0.1	0.463	352.281	0	PA_with_intermediate	test	ward_and_allport	71	24.0	0.463	to_board	poldrack-single-stim	s553	False
352.287	0.1	0.661	352.948	0	PA_with_intermediate	test	ward_and_allport	89	24.0	0.661	to_hand	poldrack-single-stim	s553	False
352.949	0.1	1.967	354.916	0	PA_with_intermediate	test	ward_and_allport	82	24.0	1.967	to_board	poldrack-single-stim	s553	False
354.924	0.1	0.646	355.57	0	PA_with_intermediate	test	ward_and_allport	71	24.0	0.646	to_hand	poldrack-single-stim	s553	False
355.571	0.1	0.927	356.498	0	PA_with_intermediate	test	ward_and_allport	89	24.0	0.927	to_board	poldrack-single-stim	s553	False
356.506	1.0	4.176	356.505	0	PA_with_intermediate	test	ward_and_allport	-1	24.0	n/a	feedback	poldrack-single-stim	s553	False
360.689	3.187	3.187	363.876	1	PA_with_intermediate	test	ward_and_allport	89	25.0	3.187	to_hand	poldrack-single-stim	s553	False
363.878	0.1	0.665	364.543	0	PA_with_intermediate	test	ward_and_allport	71	25.0	0.665	to_board	poldrack-single-stim	s553	False
364.549	0.1	0.63	365.179	0	PA_with_intermediate	test	ward_and_allport	89	25.0	0.63	to_hand	poldrack-single-stim	s553	False
365.181	0.1	1.279	366.46	0	PA_with_intermediate	test	ward_and_allport	82	25.0	1.279	to_board	poldrack-single-stim	s553	False
366.467	0.1	1.7	368.167	0	PA_with_intermediate	test	ward_and_allport	71	25.0	1.7	to_hand	poldrack-single-stim	s553	False
368.167	0.1	0.44	368.607	0	PA_with_intermediate	test	ward_and_allport	89	25.0	0.44	to_board	poldrack-single-stim	s553	False
368.617	1.0	3.36	368.616	0	PA_with_intermediate	test	ward_and_allport	-1	25.0	n/a	feedback	poldrack-single-stim	s553	False
371.984	3.186	3.186	375.17	1	PA_with_intermediate	test	ward_and_allport	82	26.0	3.186	to_hand	poldrack-single-stim	s553	False
375.171	0.1	0.504	375.675	0	PA_with_intermediate	test	ward_and_allport	71	26.0	0.504	to_board	poldrack-single-stim	s553	False
375.682	0.1	0.785	376.467	0	PA_with_intermediate	test	ward_and_allport	82	26.0	0.785	to_hand	poldrack-single-stim	s553	False
376.468	0.1	1.117	377.585	0	PA_with_intermediate	test	ward_and_allport	89	26.0	1.117	to_board	poldrack-single-stim	s553	False
377.592	0.1	0.545	378.137	0	PA_with_intermediate	test	ward_and_allport	71	26.0	0.545	to_hand	poldrack-single-stim	s553	False
378.138	0.1	0.568	378.706	0	PA_with_intermediate	test	ward_and_allport	82	26.0	0.568	to_board	poldrack-single-stim	s553	False
378.714	1.0	2.0	378.713	0	PA_with_intermediate	test	ward_and_allport	-1	26.0	n/a	feedback	poldrack-single-stim	s553	False
380.721	1.657	1.657	382.378	1	PA_without_intermediate	test	ward_and_allport	89	27.0	1.657	to_hand	poldrack-single-stim	s553	False
382.379	0.1	0.79	383.169	0	PA_without_intermediate	test	ward_and_allport	82	27.0	0.79	to_board	poldrack-single-stim	s553	False
383.177	0.1	1.396	384.573	0	PA_without_intermediate	test	ward_and_allport	89	27.0	1.396	to_hand	poldrack-single-stim	s553	False
384.573	0.1	0.91	385.483	0	PA_without_intermediate	test	ward_and_allport	71	27.0	0.91	to_board	poldrack-single-stim	s553	False
385.491	0.1	0.392	385.883	0	PA_without_intermediate	test	ward_and_allport	89	27.0	0.392	to_hand	poldrack-single-stim	s553	False
385.884	0.1	0.617	386.501	0	PA_without_intermediate	test	ward_and_allport	82	27.0	0.617	to_board	poldrack-single-stim	s553	False
386.509	1.0	2.408	386.508	0	PA_without_intermediate	test	ward_and_allport	-1	27.0	n/a	feedback	poldrack-single-stim	s553	False
388.926	7.266	7.266	396.192	1	PA_with_intermediate	test	ward_and_allport	71	28.0	7.266	to_hand	poldrack-single-stim	s553	False
396.192	0.1	1.328	397.52	0	PA_with_intermediate	test	ward_and_allport	82	28.0	1.328	to_board	poldrack-single-stim	s553	False
397.527	0.1	1.637	399.164	0	PA_with_intermediate	test	ward_and_allport	71	28.0	1.637	to_hand	poldrack-single-stim	s553	False
399.165	0.1	0.527	399.692	0	PA_with_intermediate	test	ward_and_allport	89	28.0	0.527	to_board	poldrack-single-stim	s553	False
399.699	0.1	1.254	400.953	0	PA_with_intermediate	test	ward_and_allport	82	28.0	1.254	to_hand	poldrack-single-stim	s553	False
400.954	0.1	0.61	401.564	0	PA_with_intermediate	test	ward_and_allport	71	28.0	0.61	to_board	poldrack-single-stim	s553	False
401.574	1.0	2.816	401.573	0	PA_with_intermediate	test	ward_and_allport	-1	28.0	n/a	feedback	poldrack-single-stim	s553	False
404.398	2.049	2.049	406.447	1	PA_without_intermediate	test	ward_and_allport	89	29.0	2.049	to_hand	poldrack-single-stim	s553	False
406.447	0.1	1.574	408.021	0	PA_without_intermediate	test	ward_and_allport	82	29.0	1.574	to_board	poldrack-single-stim	s553	False
408.029	0.1	0.837	408.866	0	PA_without_intermediate	test	ward_and_allport	89	29.0	0.837	to_hand	poldrack-single-stim	s553	False
408.867	0.1	1.36	410.227	0	PA_without_intermediate	test	ward_and_allport	82	29.0	1.36	to_board	poldrack-single-stim	s553	False
410.236	0.1	0.559	410.795	0	PA_without_intermediate	test	ward_and_allport	89	29.0	0.559	to_hand	poldrack-single-stim	s553	False
410.796	0.1	0.679	411.475	0	PA_without_intermediate	test	ward_and_allport	71	29.0	0.679	to_board	poldrack-single-stim	s553	False
411.488	1.0	3.088	411.487	0	PA_without_intermediate	test	ward_and_allport	-1	29.0	n/a	feedback	poldrack-single-stim	s553	False
419.589	2.942	2.942	422.531	1	PA_without_intermediate	test	ward_and_allport	82	30.0	2.942	to_hand	poldrack-single-stim	s553	False
422.532	0.1	0.683	423.215	0	PA_without_intermediate	test	ward_and_allport	89	30.0	0.683	to_board	poldrack-single-stim	s553	False
423.224	0.1	2.828	426.052	0	PA_without_intermediate	test	ward_and_allport	82	30.0	2.828	to_hand	poldrack-single-stim	s553	False
426.052	0.1	0.901	426.953	0	PA_without_intermediate	test	ward_and_allport	71	30.0	0.901	to_board	poldrack-single-stim	s553	False
426.96	0.1	1.544	428.504	0	PA_without_intermediate	test	ward_and_allport	82	30.0	1.544	to_hand	poldrack-single-stim	s553	False
428.506	0.1	0.512	429.018	0	PA_without_intermediate	test	ward_and_allport	89	30.0	0.512	to_board	poldrack-single-stim	s553	False
429.028	1.0	2.136	429.027	0	PA_without_intermediate	test	ward_and_allport	-1	30.0	n/a	feedback	poldrack-single-stim	s553	False
431.172	2.047	2.047	433.219	1	PA_without_intermediate	test	ward_and_allport	89	31.0	2.047	to_hand	poldrack-single-stim	s553	False
433.221	0.1	0.994	434.215	0	PA_without_intermediate	test	ward_and_allport	71	31.0	0.994	to_board	poldrack-single-stim	s553	False
434.223	0.1	1.061	435.284	0	PA_without_intermediate	test	ward_and_allport	89	31.0	1.061	to_hand	poldrack-single-stim	s553	False
435.284	0.1	0.805	436.089	0	PA_without_intermediate	test	ward_and_allport	82	31.0	0.805	to_board	poldrack-single-stim	s553	False
436.098	0.1	0.588	436.686	0	PA_without_intermediate	test	ward_and_allport	89	31.0	0.588	to_hand	poldrack-single-stim	s553	False
436.688	0.1	0.738	437.426	0	PA_without_intermediate	test	ward_and_allport	71	31.0	0.738	to_board	poldrack-single-stim	s553	False
437.437	1.0	7.168	437.436	0	PA_without_intermediate	test	ward_and_allport	-1	31.0	n/a	feedback	poldrack-single-stim	s553	False
444.614	2.565	2.565	447.179	1	PA_without_intermediate	test	ward_and_allport	71	32.0	2.565	to_hand	poldrack-single-stim	s553	False
447.181	0.1	0.684	447.865	0	PA_without_intermediate	test	ward_and_allport	82	32.0	0.684	to_board	poldrack-single-stim	s553	False
447.875	0.1	1.324	449.199	0	PA_without_intermediate	test	ward_and_allport	71	32.0	1.324	to_hand	poldrack-single-stim	s553	False
449.2	0.1	0.548	449.748	0	PA_without_intermediate	test	ward_and_allport	82	32.0	0.548	to_board	poldrack-single-stim	s553	False
449.757	0.1	0.706	450.463	0	PA_without_intermediate	test	ward_and_allport	71	32.0	0.706	to_hand	poldrack-single-stim	s553	False
450.464	0.1	0.417	450.881	0	PA_without_intermediate	test	ward_and_allport	89	32.0	0.417	to_board	poldrack-single-stim	s553	False
450.893	1.0	2.816	450.892	0	PA_without_intermediate	test	ward_and_allport	-1	32.0	n/a	feedback	poldrack-single-stim	s553	False
453.716	4.597	4.597	458.313	1	PA_with_intermediate	test	ward_and_allport	89	33.0	4.597	to_hand	poldrack-single-stim	s553	False
458.313	0.1	0.53	458.843	0	PA_with_intermediate	test	ward_and_allport	82	33.0	0.53	to_board	poldrack-single-stim	s553	False
458.849	0.1	1.554	460.403	0	PA_with_intermediate	test	ward_and_allport	89	33.0	1.554	to_hand	poldrack-single-stim	s553	False
460.405	0.1	0.648	461.053	0	PA_with_intermediate	test	ward_and_allport	71	33.0	0.648	to_board	poldrack-single-stim	s553	False
461.061	0.1	2.23	463.291	0	PA_with_intermediate	test	ward_and_allport	82	33.0	2.23	to_hand	poldrack-single-stim	s553	False
463.292	0.1	0.604	463.896	0	PA_with_intermediate	test	ward_and_allport	89	33.0	0.604	to_board	poldrack-single-stim	s553	False
463.909	1.0	2.952	463.908	0	PA_with_intermediate	test	ward_and_allport	-1	33.0	n/a	feedback	poldrack-single-stim	s553	False
466.871	2.898	2.898	469.769	1	PA_with_intermediate	test	ward_and_allport	89	34.0	2.898	to_hand	poldrack-single-stim	s553	False
469.769	0.1	0.78	470.549	0	PA_with_intermediate	test	ward_and_allport	82	34.0	0.78	to_board	poldrack-single-stim	s553	False
470.558	0.1	1.438	471.996	0	PA_with_intermediate	test	ward_and_allport	89	34.0	1.438	to_hand	poldrack-single-stim	s553	False
471.997	0.1	1.765	473.762	0	PA_with_intermediate	test	ward_and_allport	71	34.0	1.765	to_board	poldrack-single-stim	s553	False
473.771	0.1	0.555	474.326	0	PA_with_intermediate	test	ward_and_allport	82	34.0	0.555	to_hand	poldrack-single-stim	s553	False
474.328	0.1	0.495	474.823	0	PA_with_intermediate	test	ward_and_allport	89	34.0	0.495	to_board	poldrack-single-stim	s553	False
474.838	1.0	2.136	474.837	0	PA_with_intermediate	test	ward_and_allport	-1	34.0	n/a	feedback	poldrack-single-stim	s553	False
476.982	3.405	3.405	480.387	1	PA_without_intermediate	test	ward_and_allport	71	35.0	3.405	to_hand	poldrack-single-stim	s553	False
480.389	0.1	0.521	480.91	0	PA_without_intermediate	test	ward_and_allport	89	35.0	0.521	to_board	poldrack-single-stim	s553	False
480.918	0.1	1.149	482.067	0	PA_without_intermediate	test	ward_and_allport	71	35.0	1.149	to_hand	poldrack-single-stim	s553	False
482.067	0.1	0.538	482.605	0	PA_without_intermediate	test	ward_and_allport	82	35.0	0.538	to_board	poldrack-single-stim	s553	False
482.614	0.1	0.805	483.419	0	PA_without_intermediate	test	ward_and_allport	71	35.0	0.805	to_hand	poldrack-single-stim	s553	False
483.42	0.1	0.437	483.857	0	PA_without_intermediate	test	ward_and_allport	89	35.0	0.437	to_board	poldrack-single-stim	s553	False
483.867	1.0	2.68	483.866	0	PA_without_intermediate	test	ward_and_allport	-1	35.0	n/a	feedback	poldrack-single-stim	s553	False
486.556	1.95	1.95	488.506	1	PA_without_intermediate	test	ward_and_allport	89	36.0	1.95	to_hand	poldrack-single-stim	s553	False
488.506	0.1	0.628	489.134	0	PA_without_intermediate	test	ward_and_allport	82	36.0	0.628	to_board	poldrack-single-stim	s553	False
489.141	0.1	1.802	490.943	0	PA_without_intermediate	test	ward_and_allport	89	36.0	1.802	to_hand	poldrack-single-stim	s553	False
490.944	0.1	0.663	491.607	0	PA_without_intermediate	test	ward_and_allport	82	36.0	0.663	to_board	poldrack-single-stim	s553	False
491.615	0.1	0.897	492.512	0	PA_without_intermediate	test	ward_and_allport	89	36.0	0.897	to_hand	poldrack-single-stim	s553	False
492.512	0.1	0.655	493.167	0	PA_without_intermediate	test	ward_and_allport	71	36.0	0.655	to_board	poldrack-single-stim	s553	False
493.177	1.0	3.088	493.176	0	PA_without_intermediate	test	ward_and_allport	-1	36.0	n/a	feedback	poldrack-single-stim	s553	False
496.274	2.741	2.741	499.015	1	PA_with_intermediate	test	ward_and_allport	89	37.0	2.741	to_hand	poldrack-single-stim	s553	False
499.017	0.1	0.645	499.662	0	PA_with_intermediate	test	ward_and_allport	71	37.0	0.645	to_board	poldrack-single-stim	s553	False
499.671	0.1	0.437	500.108	0	PA_with_intermediate	test	ward_and_allport	89	37.0	0.437	to_hand	poldrack-single-stim	s553	False
500.109	0.1	1.995	502.104	0	PA_with_intermediate	test	ward_and_allport	82	37.0	1.995	to_board	poldrack-single-stim	s553	False
502.114	0.1	0.713	502.827	0	PA_with_intermediate	test	ward_and_allport	71	37.0	0.713	to_hand	poldrack-single-stim	s553	False
502.828	0.1	0.836	503.664	0	PA_with_intermediate	test	ward_and_allport	89	37.0	0.836	to_board	poldrack-single-stim	s553	False
503.672	0.1	0.589	504.261	0	PA_with_intermediate	test	ward_and_allport	82	37.0	0.589	to_hand	poldrack-single-stim	s553	False
504.263	0.1	0.853	505.116	0	PA_with_intermediate	test	ward_and_allport	71	37.0	0.853	to_board	poldrack-single-stim	s553	False
505.123	0.1	0.77	505.893	0	PA_with_intermediate	test	ward_and_allport	89	37.0	0.77	to_hand	poldrack-single-stim	s553	False
505.894	0.1	0.641	506.535	0	PA_with_intermediate	test	ward_and_allport	71	37.0	0.641	to_board	poldrack-single-stim	s553	False
506.543	1.0	2.0	506.542	0	PA_with_intermediate	test	ward_and_allport	-1	37.0	n/a	feedback	poldrack-single-stim	s553	False
508.55	3.046	3.046	511.596	1	PA_without_intermediate	test	ward_and_allport	71	38.0	3.046	to_hand	poldrack-single-stim	s553	False
511.596	0.1	0.484	512.08	0	PA_without_intermediate	test	ward_and_allport	89	38.0	0.484	to_board	poldrack-single-stim	s553	False
512.086	0.1	1.565	513.651	0	PA_without_intermediate	test	ward_and_allport	71	38.0	1.565	to_hand	poldrack-single-stim	s553	False
513.653	0.1	0.863	514.516	0	PA_without_intermediate	test	ward_and_allport	82	38.0	0.863	to_board	poldrack-single-stim	s553	False
514.524	0.1	0.579	515.103	0	PA_without_intermediate	test	ward_and_allport	71	38.0	0.579	to_hand	poldrack-single-stim	s553	False
515.104	0.1	0.747	515.851	0	PA_without_intermediate	test	ward_and_allport	89	38.0	0.747	to_board	poldrack-single-stim	s553	False
515.866	1.0	2.0	515.865	0	PA_without_intermediate	test	ward_and_allport	-1	38.0	n/a	feedback	poldrack-single-stim	s553	False
517.877	1.914	1.914	519.791	1	PA_without_intermediate	test	ward_and_allport	71	39.0	1.914	to_hand	poldrack-single-stim	s553	False
519.793	0.1	0.549	520.342	0	PA_without_intermediate	test	ward_and_allport	82	39.0	0.549	to_board	poldrack-single-stim	s553	False
520.349	0.1	0.471	520.82	0	PA_without_intermediate	test	ward_and_allport	71	39.0	0.471	to_hand	poldrack-single-stim	s553	False
520.821	0.1	0.686	521.507	0	PA_without_intermediate	test	ward_and_allport	89	39.0	0.686	to_board	poldrack-single-stim	s553	False
521.514	0.1	0.598	522.112	0	PA_without_intermediate	test	ward_and_allport	71	39.0	0.598	to_hand	poldrack-single-stim	s553	False
522.113	0.1	0.543	522.656	0	PA_without_intermediate	test	ward_and_allport	82	39.0	0.543	to_board	poldrack-single-stim	s553	False
522.666	1.0	2.0	522.665	0	PA_without_intermediate	test	ward_and_allport	-1	39.0	n/a	feedback	poldrack-single-stim	s553	False
524.673	2.283	2.283	526.956	1	PA_with_intermediate	test	ward_and_allport	71	40.0	2.283	to_hand	poldrack-single-stim	s553	False
526.958	0.1	0.454	527.412	0	PA_with_intermediate	test	ward_and_allport	82	40.0	0.454	to_board	poldrack-single-stim	s553	False
527.42	0.1	0.778	528.198	0	PA_with_intermediate	test	ward_and_allport	71	40.0	0.778	to_hand	poldrack-single-stim	s553	False
528.198	0.1	0.39	528.588	0	PA_with_intermediate	test	ward_and_allport	89	40.0	0.39	to_board	poldrack-single-stim	s553	False
528.598	0.1	1.705	530.303	0	PA_with_intermediate	test	ward_and_allport	82	40.0	1.705	to_hand	poldrack-single-stim	s553	False
530.304	0.1	0.459	530.763	0	PA_with_intermediate	test	ward_and_allport	71	40.0	0.459	to_board	poldrack-single-stim	s553	False
530.773	1.0	2.544	530.772	0	PA_with_intermediate	test	ward_and_allport	-1	40.0	n/a	feedback	poldrack-single-stim	s553	False
533.323	2.896	2.896	536.219	1	PA_without_intermediate	test	ward_and_allport	82	41.0	2.896	to_hand	poldrack-single-stim	s553	False
536.22	0.1	0.336	536.556	0	PA_without_intermediate	test	ward_and_allport	89	41.0	0.336	to_board	poldrack-single-stim	s553	False
536.562	0.1	1.154	537.716	0	PA_without_intermediate	test	ward_and_allport	82	41.0	1.154	to_hand	poldrack-single-stim	s553	False
537.718	0.1	0.84	538.558	0	PA_without_intermediate	test	ward_and_allport	71	41.0	0.84	to_board	poldrack-single-stim	s553	False
538.567	0.1	0.544	539.111	0	PA_without_intermediate	test	ward_and_allport	82	41.0	0.544	to_hand	poldrack-single-stim	s553	False
539.113	0.1	0.837	539.95	0	PA_without_intermediate	test	ward_and_allport	89	41.0	0.837	to_board	poldrack-single-stim	s553	False
539.96	1.0	2.272	539.959	0	PA_without_intermediate	test	ward_and_allport	-1	41.0	n/a	feedback	poldrack-single-stim	s553	False
542.243	4.205	4.205	546.448	1	PA_with_intermediate	test	ward_and_allport	82	42.0	4.205	to_hand	poldrack-single-stim	s553	False
546.448	0.1	1.749	548.197	0	PA_with_intermediate	test	ward_and_allport	89	42.0	1.749	to_board	poldrack-single-stim	s553	False
548.206	0.1	0.785	548.991	0	PA_with_intermediate	test	ward_and_allport	82	42.0	0.785	to_hand	poldrack-single-stim	s553	False
548.993	0.1	0.868	549.861	0	PA_with_intermediate	test	ward_and_allport	71	42.0	0.868	to_board	poldrack-single-stim	s553	False
549.87	0.1	0.711	550.581	0	PA_with_intermediate	test	ward_and_allport	89	42.0	0.711	to_hand	poldrack-single-stim	s553	False
550.583	0.1	0.607	551.19	0	PA_with_intermediate	test	ward_and_allport	82	42.0	0.607	to_board	poldrack-single-stim	s553	False
551.203	1.0	4.04	551.202	0	PA_with_intermediate	test	ward_and_allport	-1	42.0	n/a	feedback	poldrack-single-stim	s553	False
555.253	3.976	3.976	559.229	1	PA_with_intermediate	test	ward_and_allport	82	43.0	3.976	to_hand	poldrack-single-stim	s553	False
559.23	0.1	0.984	560.214	0	PA_with_intermediate	test	ward_and_allport	89	43.0	0.984	to_board	poldrack-single-stim	s553	False
560.226	0.1	0.531	560.757	0	PA_with_intermediate	test	ward_and_allport	82	43.0	0.531	to_hand	poldrack-single-stim	s553	False
560.758	0.1	0.968	561.726	0	PA_with_intermediate	test	ward_and_allport	71	43.0	0.968	to_board	poldrack-single-stim	s553	False
561.736	0.1	0.976	562.712	0	PA_with_intermediate	test	ward_and_allport	89	43.0	0.976	to_hand	poldrack-single-stim	s553	False
562.713	0.1	0.62	563.333	0	PA_with_intermediate	test	ward_and_allport	71	43.0	0.62	to_board	poldrack-single-stim	s553	False
563.345	1.0	2.272	563.344	0	PA_with_intermediate	test	ward_and_allport	-1	43.0	n/a	feedback	poldrack-single-stim	s553	False
