onset	duration	correct	correct_response	cue	experiment_exp_id	flanker_location	flanker_middle_direction	flanker_type	key_press	response_time	worker_id
3.525	1.7	1.0	71.0	spatial	attention_network_task	down	right	incongruent	71	1.01	s553
6.133	1.7	1.0	89.0	spatial	attention_network_task	down	left	incongruent	89	0.803	s553
8.745864	1.7	1.0	89.0	spatial	attention_network_task	down	left	congruent	89	0.711	s553
11.358728	1.7	1.0	71.0	spatial	attention_network_task	down	right	congruent	71	0.966	s553
13.967592	1.7	1.0	71.0	double	attention_network_task	up	right	incongruent	71	0.801	s553
16.582	1.7	1.0	71.0	double	attention_network_task	up	right	congruent	71	1.252	s553
19.188864000000002	1.7	1.0	89.0	double	attention_network_task	down	left	congruent	89	0.759	s553
21.796864000000003	1.7	1.0	71.0	spatial	attention_network_task	down	right	congruent	71	0.956	s553
24.411	1.7	1.0	71.0	double	attention_network_task	down	right	congruent	71	1.204	s553
27.022592	1.7	1.0	89.0	double	attention_network_task	down	left	incongruent	89	0.718	s553
29.637455999999997	1.7	1.0	71.0	spatial	attention_network_task	down	right	congruent	71	0.62	s553
32.250864	1.7	1.0	89.0	spatial	attention_network_task	up	left	congruent	89	0.988	s553
34.858864000000004	1.7	1.0	89.0	spatial	attention_network_task	down	left	congruent	89	0.935	s553
37.472	1.7	1.0	89.0	spatial	attention_network_task	up	left	incongruent	89	0.999	s553
40.083	1.7	1.0	89.0	double	attention_network_task	down	left	congruent	89	1.097	s553
42.693864000000005	1.7	1.0	71.0	double	attention_network_task	down	right	congruent	71	0.91	s553
45.308	1.7	1.0	89.0	double	attention_network_task	up	left	congruent	89	0.718	s553
47.919864000000004	1.7	1.0	71.0	double	attention_network_task	up	right	congruent	71	0.716	s553
50.534	1.7	1.0	71.0	double	attention_network_task	down	right	congruent	71	0.704	s553
53.141591999999996	1.7	1.0	89.0	spatial	attention_network_task	down	left	congruent	89	0.663	s553
55.75	1.7	1.0	71.0	spatial	attention_network_task	down	right	incongruent	71	0.761	s553
58.358184	1.7	1.0	89.0	double	attention_network_task	down	left	incongruent	89	0.658	s553
60.96632	1.7	1.0	71.0	spatial	attention_network_task	up	right	congruent	71	0.892	s553
63.575	1.7	1.0	71.0	spatial	attention_network_task	up	right	congruent	71	0.697	s553
66.182864	1.7	1.0	89.0	spatial	attention_network_task	up	left	congruent	89	0.947	s553
68.790864	1.7	1.0	71.0	double	attention_network_task	down	right	incongruent	71	0.793	s553
71.403864	1.7	1.0	71.0	double	attention_network_task	down	right	incongruent	71	0.84	s553
74.016	1.7	1.0	89.0	double	attention_network_task	down	left	incongruent	89	0.728	s553
76.625864	1.7	1.0	71.0	spatial	attention_network_task	up	right	incongruent	71	0.851	s553
79.237048	1.7	1.0	71.0	spatial	attention_network_task	up	right	incongruent	71	0.717	s553
81.849864	1.7	1.0	71.0	double	attention_network_task	down	right	incongruent	71	1.659	s553
84.460592	1.7	1.0	71.0	double	attention_network_task	down	right	incongruent	71	0.748	s553
87.06804799999999	1.7	1.0	89.0	spatial	attention_network_task	down	left	incongruent	89	0.555	s553
89.676864	1.7	1.0	89.0	double	attention_network_task	up	left	incongruent	89	0.732	s553
92.284728	1.7	1.0	89.0	double	attention_network_task	down	left	incongruent	89	0.763	s553
94.897728	1.7	1.0	89.0	double	attention_network_task	up	left	incongruent	89	0.668	s553
97.511	1.7	1.0	71.0	double	attention_network_task	up	right	congruent	71	0.729	s553
100.12	1.7	1.0	71.0	spatial	attention_network_task	down	right	incongruent	71	0.774	s553
102.728728	1.7	1.0	71.0	spatial	attention_network_task	up	right	congruent	71	0.797	s553
105.336	1.7	1.0	71.0	spatial	attention_network_task	down	right	congruent	71	0.753	s553
107.949	1.7	1.0	71.0	spatial	attention_network_task	down	right	incongruent	71	0.674	s553
110.561728	1.7	1.0	71.0	double	attention_network_task	up	right	congruent	71	1.51	s553
113.171	1.7	1.0	71.0	spatial	attention_network_task	up	right	incongruent	71	0.838	s553
115.778864	1.7	1.0	71.0	spatial	attention_network_task	down	right	congruent	71	0.935	s553
118.386728	1.7	1.0	89.0	spatial	attention_network_task	down	left	congruent	89	0.763	s553
120.995	1.7	1.0	89.0	spatial	attention_network_task	down	left	congruent	89	0.844	s553
123.609	1.7	1.0	89.0	double	attention_network_task	down	left	incongruent	89	0.796	s553
126.217	1.7	1.0	71.0	double	attention_network_task	down	right	congruent	71	0.605	s553
128.825	1.7	1.0	71.0	spatial	attention_network_task	up	right	incongruent	71	1.62	s553
131.436	1.7	1.0	71.0	double	attention_network_task	up	right	congruent	71	0.617	s553
134.052	1.7	1.0	89.0	spatial	attention_network_task	up	left	incongruent	89	0.615	s553
136.659728	1.7	1.0	89.0	double	attention_network_task	down	left	congruent	89	0.855	s553
139.268864	1.7	1.0	71.0	double	attention_network_task	down	right	incongruent	71	0.772	s553
141.87991200000002	1.7	1.0	89.0	double	attention_network_task	up	left	incongruent	89	0.806	s553
144.488728	1.7	1.0	71.0	spatial	attention_network_task	down	right	congruent	71	0.53	s553
147.09786400000002	1.7	1.0	71.0	spatial	attention_network_task	up	right	congruent	71	0.725	s553
149.705864	1.7	1.0	71.0	double	attention_network_task	down	right	congruent	71	0.725	s553
152.314	1.7	1.0	71.0	double	attention_network_task	down	right	congruent	71	1.037	s553
154.922	1.7	1.0	71.0	spatial	attention_network_task	up	right	incongruent	71	0.66	s553
157.53	1.7	1.0	71.0	spatial	attention_network_task	up	right	congruent	71	0.664	s553
160.143	1.7	1.0	89.0	double	attention_network_task	down	left	incongruent	89	0.914	s553
162.750864	1.7	1.0	89.0	spatial	attention_network_task	down	left	incongruent	89	0.85	s553
165.358728	1.7	1.0	71.0	double	attention_network_task	up	right	incongruent	71	0.858	s553
167.967864	1.7	1.0	71.0	spatial	attention_network_task	down	right	congruent	71	0.718	s553
181.086864	1.7	1.0	89.0	double	attention_network_task	up	left	congruent	89	0.863	s553
183.7	1.7	1.0	89.0	double	attention_network_task	up	left	incongruent	89	0.633	s553
186.314	1.7	1.0	89.0	spatial	attention_network_task	up	left	congruent	89	0.51	s553
188.921592	1.7	1.0	71.0	double	attention_network_task	up	right	congruent	71	0.717	s553
191.53045600000002	1.7	1.0	89.0	double	attention_network_task	down	left	congruent	89	0.972	s553
194.13859200000002	1.7	1.0	89.0	spatial	attention_network_task	up	left	incongruent	89	0.725	s553
196.751	1.7	1.0	71.0	spatial	attention_network_task	up	right	congruent	71	0.657	s553
199.360592	1.7	1.0	89.0	double	attention_network_task	up	left	congruent	89	0.87	s553
201.969	1.7	1.0	71.0	spatial	attention_network_task	up	right	congruent	71	0.679	s553
204.576592	1.7	1.0	71.0	spatial	attention_network_task	down	right	congruent	71	0.866	s553
207.19	1.7	1.0	71.0	spatial	attention_network_task	down	right	incongruent	71	0.72	s553
209.798	1.7	1.0	89.0	spatial	attention_network_task	up	left	incongruent	89	0.674	s553
212.40659200000002	1.7	1.0	89.0	spatial	attention_network_task	up	left	incongruent	89	0.72	s553
215.014864	1.7	1.0	71.0	spatial	attention_network_task	down	right	incongruent	71	0.723	s553
217.622728	1.7	1.0	71.0	double	attention_network_task	down	right	incongruent	71	0.726	s553
220.230456	1.7	1.0	71.0	double	attention_network_task	up	right	incongruent	71	0.816	s553
222.838728	1.7	1.0	71.0	spatial	attention_network_task	up	right	incongruent	71	0.765	s553
225.447	1.7	1.0	89.0	spatial	attention_network_task	down	left	incongruent	89	0.807	s553
228.054592	1.7	1.0	71.0	spatial	attention_network_task	up	right	incongruent	71	0.648	s553
230.663	1.7	1.0	89.0	spatial	attention_network_task	down	left	congruent	89	0.66	s553
233.271	1.7	1.0	89.0	double	attention_network_task	down	left	congruent	89	0.955	s553
235.878456	1.7	1.0	89.0	double	attention_network_task	up	left	incongruent	89	1.115	s553
238.492592	1.7	1.0	71.0	spatial	attention_network_task	up	right	congruent	71	0.693	s553
241.101	1.7	1.0	89.0	spatial	attention_network_task	up	left	congruent	89	0.921	s553
243.708864	1.7	1.0	89.0	spatial	attention_network_task	down	left	congruent	89	0.782	s553
246.318184	1.7	1.0	71.0	spatial	attention_network_task	down	right	incongruent	71	0.716	s553
248.929864	1.7	1.0	89.0	double	attention_network_task	up	left	congruent	89	0.833	s553
251.539	1.7	1.0	89.0	spatial	attention_network_task	up	left	congruent	89	0.785	s553
254.151864	1.7	1.0	71.0	double	attention_network_task	down	right	incongruent	71	0.798	s553
256.759864	1.7	1.0	89.0	spatial	attention_network_task	up	left	incongruent	89	0.685	s553
259.367864	1.7	1.0	71.0	double	attention_network_task	up	right	incongruent	71	0.799	s553
261.975456	1.7	1.0	89.0	spatial	attention_network_task	down	left	congruent	89	0.815	s553
264.584	1.7	1.0	89.0	spatial	attention_network_task	up	left	congruent	89	0.648	s553
267.191728	1.7	1.0	71.0	double	attention_network_task	up	right	incongruent	71	0.675	s553
269.8	1.7	1.0	89.0	spatial	attention_network_task	up	left	congruent	89	0.645	s553
272.411864	1.7	1.0	89.0	spatial	attention_network_task	up	left	congruent	89	0.973	s553
275.026592	1.7	1.0	71.0	double	attention_network_task	down	right	incongruent	71	0.703	s553
277.634456	1.7	1.0	89.0	double	attention_network_task	up	left	congruent	89	0.771	s553
280.249	1.7	1.0	89.0	double	attention_network_task	down	left	incongruent	89	1.107	s553
282.856864	1.7	1.0	89.0	spatial	attention_network_task	down	left	incongruent	89	0.757	s553
285.464864	1.7	1.0	71.0	double	attention_network_task	up	right	incongruent	71	0.677	s553
288.074864	1.7	1.0	89.0	spatial	attention_network_task	up	left	incongruent	89	0.768	s553
290.688864	1.7	1.0	71.0	double	attention_network_task	up	right	congruent	71	0.654	s553
293.299728	1.7	1.0	89.0	spatial	attention_network_task	down	left	incongruent	89	0.966	s553
295.911864	1.7	1.0	89.0	spatial	attention_network_task	up	left	incongruent	89	0.705	s553
298.521592	1.7	1.0	71.0	spatial	attention_network_task	up	right	incongruent	71	0.603	s553
301.135	1.7	1.0	89.0	double	attention_network_task	up	left	incongruent	89	0.896	s553
303.744864	1.7	1.0	71.0	double	attention_network_task	up	right	congruent	71	0.807	s553
306.356	1.7	1.0	89.0	spatial	attention_network_task	up	left	congruent	89	0.884	s553
308.963864	1.7	1.0	71.0	double	attention_network_task	up	right	incongruent	71	0.669	s553
311.572048	1.7	1.0	89.0	spatial	attention_network_task	up	left	congruent	89	1.107	s553
314.185728	1.7	1.0	89.0	double	attention_network_task	up	left	congruent	89	0.607	s553
316.793864	1.7	1.0	89.0	double	attention_network_task	up	left	congruent	89	0.683	s553
319.402	1.7	1.0	89.0	double	attention_network_task	up	left	incongruent	89	0.843	s553
322.009864	1.7	1.0	89.0	spatial	attention_network_task	down	left	incongruent	89	0.832	s553
324.621	1.7	1.0	71.0	double	attention_network_task	down	right	congruent	71	0.774	s553
327.235864	1.7	1.0	71.0	spatial	attention_network_task	down	right	incongruent	71	0.689	s553
329.844728	1.7	1.0	71.0	double	attention_network_task	up	right	incongruent	71	0.8	s553
332.454728	1.7	1.0	89.0	spatial	attention_network_task	down	left	incongruent	89	1.083	s553
335.066864	1.7	1.0	89.0	double	attention_network_task	down	left	congruent	89	0.666	s553
337.675	1.7	1.0	89.0	double	attention_network_task	down	left	incongruent	89	0.941	s553
340.282864	1.7	1.0	89.0	double	attention_network_task	up	left	incongruent	89	0.802	s553
342.891	1.7	1.0	71.0	spatial	attention_network_task	up	right	congruent	71	0.823	s553
345.497728	1.7	1.0	71.0	double	attention_network_task	down	right	congruent	71	0.834	s553
