onset	duration	block_duration	movement_onset	planning	condition	exp_stage	experiment_exp_id	key_press	problem_id	response_time	trial_id	trial_type	worker_id	junk
3.01	3.387	3.387	6.397	1	UA_with_intermediate	practice	ward_and_allport	71	0.0	3.387	to_hand	poldrack-single-stim	s613	False
6.398	0.1	2.166	8.564	0	UA_with_intermediate	practice	ward_and_allport	82	0.0	2.166	to_board	poldrack-single-stim	s613	False
8.566	0.1	0.653	9.219	0	UA_with_intermediate	practice	ward_and_allport	71	0.0	0.653	to_hand	poldrack-single-stim	s613	False
9.219	0.1	0.455	9.674	0	UA_with_intermediate	practice	ward_and_allport	89	0.0	0.455	to_board	poldrack-single-stim	s613	False
9.676	0.1	1.799	11.475	0	UA_with_intermediate	practice	ward_and_allport	89	0.0	1.799	to_hand	poldrack-single-stim	s613	False
11.476	0.1	0.945	12.421	0	UA_with_intermediate	practice	ward_and_allport	89	0.0	0.945	to_board	poldrack-single-stim	s613	False
12.423	0.1	0.622	13.045	0	UA_with_intermediate	practice	ward_and_allport	82	0.0	0.622	to_hand	poldrack-single-stim	s613	False
13.046	0.1	0.469	13.515	0	UA_with_intermediate	practice	ward_and_allport	89	0.0	0.469	to_board	poldrack-single-stim	s613	False
13.522	1.0	2.5	13.521	0	UA_with_intermediate	practice	ward_and_allport	-1	0.0	n/a	feedback	poldrack-single-stim	s613	False
16.025	1.669	1.669	17.694	1	UA_with_intermediate	practice	ward_and_allport	71	1.0	1.669	to_hand	poldrack-single-stim	s613	False
17.695	0.1	1.951	19.646	0	UA_with_intermediate	practice	ward_and_allport	82	1.0	1.951	to_board	poldrack-single-stim	s613	False
19.647	0.1	1.335	20.982	0	UA_with_intermediate	practice	ward_and_allport	89	1.0	1.335	to_hand	poldrack-single-stim	s613	False
20.983	0.1	1.617	22.6	0	UA_with_intermediate	practice	ward_and_allport	82	1.0	1.617	to_board	poldrack-single-stim	s613	False
22.601	0.1	0.891	23.492	0	UA_with_intermediate	practice	ward_and_allport	89	1.0	0.891	to_hand	poldrack-single-stim	s613	False
23.493	0.1	0.541	24.034	0	UA_with_intermediate	practice	ward_and_allport	71	1.0	0.541	to_board	poldrack-single-stim	s613	False
24.035	0.1	2.225	26.26	0	UA_with_intermediate	practice	ward_and_allport	71	1.0	2.225	to_hand	poldrack-single-stim	s613	False
26.261	0.1	1.433	27.694	0	UA_with_intermediate	practice	ward_and_allport	71	1.0	1.433	to_board	poldrack-single-stim	s613	False
27.696	0.1	1.014	28.71	0	UA_with_intermediate	practice	ward_and_allport	82	1.0	1.014	to_hand	poldrack-single-stim	s613	False
28.711	0.1	0.874	29.585	0	UA_with_intermediate	practice	ward_and_allport	89	1.0	0.874	to_board	poldrack-single-stim	s613	False
29.587	0.1	2.043	31.63	0	UA_with_intermediate	practice	ward_and_allport	82	1.0	2.043	to_hand	poldrack-single-stim	s613	False
31.631	0.1	0.506	32.137	0	UA_with_intermediate	practice	ward_and_allport	71	1.0	0.506	to_board	poldrack-single-stim	s613	False
32.14	0.1	1.283	33.423	0	UA_with_intermediate	practice	ward_and_allport	89	1.0	1.283	to_hand	poldrack-single-stim	s613	False
33.424	0.1	0.748	34.172	0	UA_with_intermediate	practice	ward_and_allport	71	1.0	0.748	to_board	poldrack-single-stim	s613	False
34.174	0.1	6.003	40.177	0	UA_with_intermediate	practice	ward_and_allport	71	1.0	6.003	to_hand	poldrack-single-stim	s613	False
40.178	0.1	0.788	40.966	0	UA_with_intermediate	practice	ward_and_allport	71	1.0	0.788	to_board	poldrack-single-stim	s613	False
40.968	0.1	7.636	48.604	0	UA_with_intermediate	practice	ward_and_allport	71	1.0	7.636	to_hand	poldrack-single-stim	s613	False
48.605	0.1	0.915	49.52	0	UA_with_intermediate	practice	ward_and_allport	89	1.0	0.915	to_board	poldrack-single-stim	s613	False
49.522	0.1	1.527	51.049	0	UA_with_intermediate	practice	ward_and_allport	89	1.0	1.527	to_hand	poldrack-single-stim	s613	False
51.051	0.1	0.559	51.61	0	UA_with_intermediate	practice	ward_and_allport	71	1.0	0.559	to_board	poldrack-single-stim	s613	False
51.613	0.1	2.84	54.453	0	UA_with_intermediate	practice	ward_and_allport	71	1.0	2.84	to_hand	poldrack-single-stim	s613	False
54.454	0.1	0.757	55.211	0	UA_with_intermediate	practice	ward_and_allport	71	1.0	0.757	to_board	poldrack-single-stim	s613	False
55.213	0.1	0.469	55.682	0	UA_with_intermediate	practice	ward_and_allport	71	1.0	0.469	to_hand	poldrack-single-stim	s613	False
55.683	0.1	0.318	56.001	0	UA_with_intermediate	practice	ward_and_allport	82	1.0	0.318	to_board	poldrack-single-stim	s613	False
56.003	0.1	0.865	56.868	0	UA_with_intermediate	practice	ward_and_allport	71	1.0	0.865	to_hand	poldrack-single-stim	s613	False
56.869	0.1	0.553	57.422	0	UA_with_intermediate	practice	ward_and_allport	82	1.0	0.553	to_board	poldrack-single-stim	s613	False
57.424	0.1	0.623	58.047	0	UA_with_intermediate	practice	ward_and_allport	71	1.0	0.623	to_hand	poldrack-single-stim	s613	False
58.048	0.1	0.48	58.528	0	UA_with_intermediate	practice	ward_and_allport	89	1.0	0.48	to_board	poldrack-single-stim	s613	False
58.53	0.1	1.513	60.043	0	UA_with_intermediate	practice	ward_and_allport	82	1.0	1.513	to_hand	poldrack-single-stim	s613	False
60.044	0.1	0.404	60.448	0	UA_with_intermediate	practice	ward_and_allport	89	1.0	0.404	to_board	poldrack-single-stim	s613	False
60.451	0.1	0.801	61.252	0	UA_with_intermediate	practice	ward_and_allport	82	1.0	0.801	to_hand	poldrack-single-stim	s613	False
61.253	0.1	0.304	61.557	0	UA_with_intermediate	practice	ward_and_allport	89	1.0	0.304	to_board	poldrack-single-stim	s613	False
61.565	1.0	2.1	61.564	0	UA_with_intermediate	practice	ward_and_allport	-1	1.0	n/a	feedback	poldrack-single-stim	s613	False
63.668	2.581	2.581	66.249	1	UA_without_intermediate	practice	ward_and_allport	71	2.0	2.581	to_hand	poldrack-single-stim	s613	False
66.25	0.1	0.544	66.794	0	UA_without_intermediate	practice	ward_and_allport	89	2.0	0.544	to_board	poldrack-single-stim	s613	False
66.796	0.1	2.092	68.888	0	UA_without_intermediate	practice	ward_and_allport	71	2.0	2.092	to_hand	poldrack-single-stim	s613	False
68.889	0.1	0.997	69.886	0	UA_without_intermediate	practice	ward_and_allport	89	2.0	0.997	to_board	poldrack-single-stim	s613	False
69.889	0.1	0.839	70.728	0	UA_without_intermediate	practice	ward_and_allport	82	2.0	0.839	to_hand	poldrack-single-stim	s613	False
70.729	0.1	0.462	71.191	0	UA_without_intermediate	practice	ward_and_allport	71	2.0	0.462	to_board	poldrack-single-stim	s613	False
71.194	0.1	1.373	72.567	0	UA_without_intermediate	practice	ward_and_allport	71	2.0	1.373	to_hand	poldrack-single-stim	s613	False
72.568	0.1	0.877	73.445	0	UA_without_intermediate	practice	ward_and_allport	71	2.0	0.877	to_board	poldrack-single-stim	s613	False
73.446	0.1	1.537	74.983	0	UA_without_intermediate	practice	ward_and_allport	89	2.0	1.537	to_hand	poldrack-single-stim	s613	False
74.985	0.1	1.133	76.118	0	UA_without_intermediate	practice	ward_and_allport	82	2.0	1.133	to_board	poldrack-single-stim	s613	False
76.12	0.1	0.924	77.044	0	UA_without_intermediate	practice	ward_and_allport	89	2.0	0.924	to_hand	poldrack-single-stim	s613	False
77.046	0.1	0.531	77.577	0	UA_without_intermediate	practice	ward_and_allport	71	2.0	0.531	to_board	poldrack-single-stim	s613	False
77.58	0.1	1.327	78.907	0	UA_without_intermediate	practice	ward_and_allport	82	2.0	1.327	to_hand	poldrack-single-stim	s613	False
78.907	0.1	0.595	79.502	0	UA_without_intermediate	practice	ward_and_allport	71	2.0	0.595	to_board	poldrack-single-stim	s613	False
79.506	0.1	2.737	82.243	0	UA_without_intermediate	practice	ward_and_allport	71	2.0	2.737	to_hand	poldrack-single-stim	s613	False
82.244	0.1	0.885	83.129	0	UA_without_intermediate	practice	ward_and_allport	82	2.0	0.885	to_board	poldrack-single-stim	s613	False
83.131	0.1	0.529	83.66	0	UA_without_intermediate	practice	ward_and_allport	71	2.0	0.529	to_hand	poldrack-single-stim	s613	False
83.66	0.1	0.584	84.244	0	UA_without_intermediate	practice	ward_and_allport	82	2.0	0.584	to_board	poldrack-single-stim	s613	False
84.248	0.1	0.643	84.891	0	UA_without_intermediate	practice	ward_and_allport	71	2.0	0.643	to_hand	poldrack-single-stim	s613	False
84.892	0.1	0.486	85.378	0	UA_without_intermediate	practice	ward_and_allport	89	2.0	0.486	to_board	poldrack-single-stim	s613	False
85.38	0.1	1.704	87.084	0	UA_without_intermediate	practice	ward_and_allport	82	2.0	1.704	to_hand	poldrack-single-stim	s613	False
87.085	0.1	0.487	87.572	0	UA_without_intermediate	practice	ward_and_allport	89	2.0	0.487	to_board	poldrack-single-stim	s613	False
87.575	0.1	0.647	88.222	0	UA_without_intermediate	practice	ward_and_allport	82	2.0	0.647	to_hand	poldrack-single-stim	s613	False
88.223	0.1	0.407	88.63	0	UA_without_intermediate	practice	ward_and_allport	89	2.0	0.407	to_board	poldrack-single-stim	s613	False
88.637	1.0	2.2	88.636	0	UA_without_intermediate	practice	ward_and_allport	-1	2.0	n/a	feedback	poldrack-single-stim	s613	False
90.842	9.551	9.551	100.393	1	UA_without_intermediate	practice	ward_and_allport	71	3.0	9.551	to_hand	poldrack-single-stim	s613	False
100.394	0.1	3.7	104.094	0	UA_without_intermediate	practice	ward_and_allport	82	3.0	3.7	to_board	poldrack-single-stim	s613	False
104.097	0.1	0.97	105.067	0	UA_without_intermediate	practice	ward_and_allport	71	3.0	0.97	to_hand	poldrack-single-stim	s613	False
105.068	0.1	0.453	105.521	0	UA_without_intermediate	practice	ward_and_allport	89	3.0	0.453	to_board	poldrack-single-stim	s613	False
105.524	0.1	2.417	107.941	0	UA_without_intermediate	practice	ward_and_allport	82	3.0	2.417	to_hand	poldrack-single-stim	s613	False
107.942	0.1	0.442	108.384	0	UA_without_intermediate	practice	ward_and_allport	71	3.0	0.442	to_board	poldrack-single-stim	s613	False
108.387	0.1	0.85	109.237	0	UA_without_intermediate	practice	ward_and_allport	82	3.0	0.85	to_hand	poldrack-single-stim	s613	False
109.238	0.1	0.446	109.684	0	UA_without_intermediate	practice	ward_and_allport	89	3.0	0.446	to_board	poldrack-single-stim	s613	False
109.687	0.1	0.599	110.286	0	UA_without_intermediate	practice	ward_and_allport	71	3.0	0.599	to_hand	poldrack-single-stim	s613	False
110.287	0.1	0.386	110.673	0	UA_without_intermediate	practice	ward_and_allport	89	3.0	0.386	to_board	poldrack-single-stim	s613	False
110.674	0.1	3.052	113.726	0	UA_without_intermediate	practice	ward_and_allport	89	3.0	3.052	to_hand	poldrack-single-stim	s613	False
113.728	0.1	0.649	114.377	0	UA_without_intermediate	practice	ward_and_allport	71	3.0	0.649	to_board	poldrack-single-stim	s613	False
114.379	0.1	2.364	116.743	0	UA_without_intermediate	practice	ward_and_allport	89	3.0	2.364	to_hand	poldrack-single-stim	s613	False
116.744	0.1	0.783	117.527	0	UA_without_intermediate	practice	ward_and_allport	71	3.0	0.783	to_board	poldrack-single-stim	s613	False
117.531	0.1	0.584	118.115	0	UA_without_intermediate	practice	ward_and_allport	89	3.0	0.584	to_hand	poldrack-single-stim	s613	False
118.116	0.1	1.172	119.288	0	UA_without_intermediate	practice	ward_and_allport	82	3.0	1.172	to_board	poldrack-single-stim	s613	False
119.291	0.1	1.199	120.49	0	UA_without_intermediate	practice	ward_and_allport	71	3.0	1.199	to_hand	poldrack-single-stim	s613	False
120.491	0.1	0.539	121.03	0	UA_without_intermediate	practice	ward_and_allport	82	3.0	0.539	to_board	poldrack-single-stim	s613	False
121.033	0.1	0.572	121.605	0	UA_without_intermediate	practice	ward_and_allport	71	3.0	0.572	to_hand	poldrack-single-stim	s613	False
121.606	0.1	0.535	122.141	0	UA_without_intermediate	practice	ward_and_allport	89	3.0	0.535	to_board	poldrack-single-stim	s613	False
122.145	0.1	1.793	123.938	0	UA_without_intermediate	practice	ward_and_allport	82	3.0	1.793	to_hand	poldrack-single-stim	s613	False
123.939	0.1	0.468	124.407	0	UA_without_intermediate	practice	ward_and_allport	89	3.0	0.468	to_board	poldrack-single-stim	s613	False
124.41	0.1	1.251	125.661	0	UA_without_intermediate	practice	ward_and_allport	82	3.0	1.251	to_hand	poldrack-single-stim	s613	False
125.662	0.1	0.842	126.504	0	UA_without_intermediate	practice	ward_and_allport	89	3.0	0.842	to_board	poldrack-single-stim	s613	False
126.507	1.0	2.0	126.506	0	UA_without_intermediate	practice	ward_and_allport	-1	3.0	n/a	feedback	poldrack-single-stim	s613	False
130.513	7.305	7.305	137.818	1	PA_with_intermediate	test	ward_and_allport	82	0.0	7.305	to_hand	poldrack-single-stim	s613	False
137.819	0.1	0.87	138.689	0	PA_with_intermediate	test	ward_and_allport	89	0.0	0.87	to_board	poldrack-single-stim	s613	False
138.693	0.1	0.86	139.553	0	PA_with_intermediate	test	ward_and_allport	82	0.0	0.86	to_hand	poldrack-single-stim	s613	False
139.554	0.1	0.367	139.921	0	PA_with_intermediate	test	ward_and_allport	71	0.0	0.367	to_board	poldrack-single-stim	s613	False
139.924	0.1	2.405	142.329	0	PA_with_intermediate	test	ward_and_allport	89	0.0	2.405	to_hand	poldrack-single-stim	s613	False
142.33	0.1	0.48	142.81	0	PA_with_intermediate	test	ward_and_allport	71	0.0	0.48	to_board	poldrack-single-stim	s613	False
142.814	1.0	2.408	142.813	0	PA_with_intermediate	test	ward_and_allport	-1	0.0	n/a	feedback	poldrack-single-stim	s613	False
145.226	4.273	4.273	149.499	1	PA_without_intermediate	test	ward_and_allport	71	1.0	4.273	to_hand	poldrack-single-stim	s613	False
149.5	0.1	0.442	149.942	0	PA_without_intermediate	test	ward_and_allport	82	1.0	0.442	to_board	poldrack-single-stim	s613	False
149.946	0.1	0.906	150.852	0	PA_without_intermediate	test	ward_and_allport	71	1.0	0.906	to_hand	poldrack-single-stim	s613	False
150.855	0.1	0.308	151.163	0	PA_without_intermediate	test	ward_and_allport	89	1.0	0.308	to_board	poldrack-single-stim	s613	False
151.166	0.1	0.623	151.789	0	PA_without_intermediate	test	ward_and_allport	71	1.0	0.623	to_hand	poldrack-single-stim	s613	False
151.792	0.1	0.312	152.104	0	PA_without_intermediate	test	ward_and_allport	82	1.0	0.312	to_board	poldrack-single-stim	s613	False
152.109	1.0	2.68	152.108	0	PA_without_intermediate	test	ward_and_allport	-1	1.0	n/a	feedback	poldrack-single-stim	s613	False
154.794	6.386	6.386	161.18	1	PA_with_intermediate	test	ward_and_allport	89	2.0	6.386	to_hand	poldrack-single-stim	s613	False
161.182	0.1	0.433	161.615	0	PA_with_intermediate	test	ward_and_allport	71	2.0	0.433	to_board	poldrack-single-stim	s613	False
161.62	0.1	1.08	162.7	0	PA_with_intermediate	test	ward_and_allport	89	2.0	1.08	to_hand	poldrack-single-stim	s613	False
162.701	0.1	0.395	163.096	0	PA_with_intermediate	test	ward_and_allport	82	2.0	0.395	to_board	poldrack-single-stim	s613	False
163.1	0.1	0.999	164.099	0	PA_with_intermediate	test	ward_and_allport	71	2.0	0.999	to_hand	poldrack-single-stim	s613	False
164.1	0.1	0.363	164.463	0	PA_with_intermediate	test	ward_and_allport	89	2.0	0.363	to_board	poldrack-single-stim	s613	False
164.47	1.0	4.72	164.469	0	PA_with_intermediate	test	ward_and_allport	-1	2.0	n/a	feedback	poldrack-single-stim	s613	False
169.194	2.794	2.794	171.988	1	PA_without_intermediate	test	ward_and_allport	71	3.0	2.794	to_hand	poldrack-single-stim	s613	False
171.989	0.1	0.442	172.431	0	PA_without_intermediate	test	ward_and_allport	82	3.0	0.442	to_board	poldrack-single-stim	s613	False
172.435	0.1	2.133	174.568	0	PA_without_intermediate	test	ward_and_allport	71	3.0	2.133	to_hand	poldrack-single-stim	s613	False
174.568	0.1	0.346	174.914	0	PA_without_intermediate	test	ward_and_allport	82	3.0	0.346	to_board	poldrack-single-stim	s613	False
174.918	0.1	0.7	175.618	0	PA_without_intermediate	test	ward_and_allport	71	3.0	0.7	to_hand	poldrack-single-stim	s613	False
175.619	0.1	0.325	175.944	0	PA_without_intermediate	test	ward_and_allport	89	3.0	0.325	to_board	poldrack-single-stim	s613	False
175.955	1.0	3.224	175.954	0	PA_without_intermediate	test	ward_and_allport	-1	3.0	n/a	feedback	poldrack-single-stim	s613	False
179.182	4.052	4.052	183.234	1	PA_without_intermediate	test	ward_and_allport	82	4.0	4.052	to_hand	poldrack-single-stim	s613	False
183.236	0.1	0.508	183.744	0	PA_without_intermediate	test	ward_and_allport	71	4.0	0.508	to_board	poldrack-single-stim	s613	False
183.748	0.1	3.302	187.05	0	PA_without_intermediate	test	ward_and_allport	82	4.0	3.302	to_hand	poldrack-single-stim	s613	False
187.05	0.1	0.592	187.642	0	PA_without_intermediate	test	ward_and_allport	89	4.0	0.592	to_board	poldrack-single-stim	s613	False
187.647	0.1	0.772	188.419	0	PA_without_intermediate	test	ward_and_allport	82	4.0	0.772	to_hand	poldrack-single-stim	s613	False
188.42	0.1	0.427	188.847	0	PA_without_intermediate	test	ward_and_allport	71	4.0	0.427	to_board	poldrack-single-stim	s613	False
188.854	1.0	2.272	188.853	0	PA_without_intermediate	test	ward_and_allport	-1	4.0	n/a	feedback	poldrack-single-stim	s613	False
191.131	3.241	3.241	194.372	1	PA_with_intermediate	test	ward_and_allport	71	5.0	3.241	to_hand	poldrack-single-stim	s613	False
194.373	0.1	0.435	194.808	0	PA_with_intermediate	test	ward_and_allport	82	5.0	0.435	to_board	poldrack-single-stim	s613	False
194.812	0.1	1.791	196.603	0	PA_with_intermediate	test	ward_and_allport	71	5.0	1.791	to_hand	poldrack-single-stim	s613	False
196.603	0.1	0.531	197.134	0	PA_with_intermediate	test	ward_and_allport	89	5.0	0.531	to_board	poldrack-single-stim	s613	False
197.139	0.1	0.625	197.764	0	PA_with_intermediate	test	ward_and_allport	82	5.0	0.625	to_hand	poldrack-single-stim	s613	False
197.765	0.1	0.328	198.093	0	PA_with_intermediate	test	ward_and_allport	89	5.0	0.328	to_board	poldrack-single-stim	s613	False
198.097	1.0	3.632	198.096	0	PA_with_intermediate	test	ward_and_allport	-1	5.0	n/a	feedback	poldrack-single-stim	s613	False
201.733	4.297	4.297	206.03	1	PA_without_intermediate	test	ward_and_allport	82	6.0	4.297	to_hand	poldrack-single-stim	s613	False
206.031	0.1	0.416	206.447	0	PA_without_intermediate	test	ward_and_allport	89	6.0	0.416	to_board	poldrack-single-stim	s613	False
206.451	0.1	2.411	208.862	0	PA_without_intermediate	test	ward_and_allport	82	6.0	2.411	to_hand	poldrack-single-stim	s613	False
208.863	0.1	0.472	209.335	0	PA_without_intermediate	test	ward_and_allport	71	6.0	0.472	to_board	poldrack-single-stim	s613	False
209.339	0.1	0.962	210.301	0	PA_without_intermediate	test	ward_and_allport	82	6.0	0.962	to_hand	poldrack-single-stim	s613	False
210.302	0.1	0.325	210.627	0	PA_without_intermediate	test	ward_and_allport	89	6.0	0.325	to_board	poldrack-single-stim	s613	False
210.633	1.0	2.408	210.632	0	PA_without_intermediate	test	ward_and_allport	-1	6.0	n/a	feedback	poldrack-single-stim	s613	False
213.045	3.795	3.795	216.84	1	PA_without_intermediate	test	ward_and_allport	71	7.0	3.795	to_hand	poldrack-single-stim	s613	False
216.841	0.1	0.662	217.503	0	PA_without_intermediate	test	ward_and_allport	82	7.0	0.662	to_board	poldrack-single-stim	s613	False
217.507	0.1	1.117	218.624	0	PA_without_intermediate	test	ward_and_allport	71	7.0	1.117	to_hand	poldrack-single-stim	s613	False
218.625	0.1	0.336	218.961	0	PA_without_intermediate	test	ward_and_allport	89	7.0	0.336	to_board	poldrack-single-stim	s613	False
218.965	0.1	0.782	219.747	0	PA_without_intermediate	test	ward_and_allport	71	7.0	0.782	to_hand	poldrack-single-stim	s613	False
219.748	0.1	0.309	220.057	0	PA_without_intermediate	test	ward_and_allport	82	7.0	0.309	to_board	poldrack-single-stim	s613	False
220.065	1.0	2.0	220.064	0	PA_without_intermediate	test	ward_and_allport	-1	7.0	n/a	feedback	poldrack-single-stim	s613	False
222.069	2.989	2.989	225.058	1	PA_with_intermediate	test	ward_and_allport	71	8.0	2.989	to_hand	poldrack-single-stim	s613	False
225.059	0.1	4.12	229.179	0	PA_with_intermediate	test	ward_and_allport	71	8.0	4.12	to_board	poldrack-single-stim	s613	False
229.183	0.1	0.694	229.877	0	PA_with_intermediate	test	ward_and_allport	71	8.0	0.694	to_hand	poldrack-single-stim	s613	False
229.878	0.1	1.939	231.817	0	PA_with_intermediate	test	ward_and_allport	89	8.0	1.939	to_board	poldrack-single-stim	s613	False
231.821	0.1	0.562	232.383	0	PA_with_intermediate	test	ward_and_allport	71	8.0	0.562	to_hand	poldrack-single-stim	s613	False
232.384	0.1	0.826	233.21	0	PA_with_intermediate	test	ward_and_allport	82	8.0	0.826	to_board	poldrack-single-stim	s613	False
233.214	0.1	0.395	233.609	0	PA_with_intermediate	test	ward_and_allport	89	8.0	0.395	to_hand	poldrack-single-stim	s613	False
233.61	0.1	0.251	233.861	0	PA_with_intermediate	test	ward_and_allport	82	8.0	0.251	to_board	poldrack-single-stim	s613	False
233.867	1.0	2.0	233.866	0	PA_with_intermediate	test	ward_and_allport	-1	8.0	n/a	feedback	poldrack-single-stim	s613	False
235.872	4.389	4.389	240.261	1	PA_with_intermediate	test	ward_and_allport	89	9.0	4.389	to_hand	poldrack-single-stim	s613	False
240.262	0.1	0.289	240.551	0	PA_with_intermediate	test	ward_and_allport	82	9.0	0.289	to_board	poldrack-single-stim	s613	False
240.555	0.1	2.53	243.085	0	PA_with_intermediate	test	ward_and_allport	89	9.0	2.53	to_hand	poldrack-single-stim	s613	False
243.087	0.1	0.376	243.463	0	PA_with_intermediate	test	ward_and_allport	71	9.0	0.376	to_board	poldrack-single-stim	s613	False
243.468	0.1	3.576	247.044	0	PA_with_intermediate	test	ward_and_allport	82	9.0	3.576	to_hand	poldrack-single-stim	s613	False
247.045	0.1	0.322	247.367	0	PA_with_intermediate	test	ward_and_allport	89	9.0	0.322	to_board	poldrack-single-stim	s613	False
247.371	1.0	2.0	247.37	0	PA_with_intermediate	test	ward_and_allport	-1	9.0	n/a	feedback	poldrack-single-stim	s613	False
249.376	5.527	5.527	254.903	1	PA_with_intermediate	test	ward_and_allport	89	10.0	5.527	to_hand	poldrack-single-stim	s613	False
254.904	0.1	0.299	255.203	0	PA_with_intermediate	test	ward_and_allport	82	10.0	0.299	to_board	poldrack-single-stim	s613	False
255.207	0.1	0.947	256.154	0	PA_with_intermediate	test	ward_and_allport	89	10.0	0.947	to_hand	poldrack-single-stim	s613	False
256.156	0.1	0.333	256.489	0	PA_with_intermediate	test	ward_and_allport	71	10.0	0.333	to_board	poldrack-single-stim	s613	False
256.494	0.1	0.424	256.918	0	PA_with_intermediate	test	ward_and_allport	82	10.0	0.424	to_hand	poldrack-single-stim	s613	False
256.919	0.1	0.439	257.358	0	PA_with_intermediate	test	ward_and_allport	71	10.0	0.439	to_board	poldrack-single-stim	s613	False
257.362	1.0	2.408	257.361	0	PA_with_intermediate	test	ward_and_allport	-1	10.0	n/a	feedback	poldrack-single-stim	s613	False
259.775	3.965	3.965	263.74	1	PA_without_intermediate	test	ward_and_allport	89	11.0	3.965	to_hand	poldrack-single-stim	s613	False
263.741	0.1	0.365	264.106	0	PA_without_intermediate	test	ward_and_allport	71	11.0	0.365	to_board	poldrack-single-stim	s613	False
264.111	0.1	1.431	265.542	0	PA_without_intermediate	test	ward_and_allport	89	11.0	1.431	to_hand	poldrack-single-stim	s613	False
265.543	0.1	0.298	265.841	0	PA_without_intermediate	test	ward_and_allport	71	11.0	0.298	to_board	poldrack-single-stim	s613	False
265.85	0.1	1.357	267.207	0	PA_without_intermediate	test	ward_and_allport	89	11.0	1.357	to_hand	poldrack-single-stim	s613	False
267.208	0.1	0.278	267.486	0	PA_without_intermediate	test	ward_and_allport	82	11.0	0.278	to_board	poldrack-single-stim	s613	False
267.494	1.0	2.816	267.493	0	PA_without_intermediate	test	ward_and_allport	-1	11.0	n/a	feedback	poldrack-single-stim	s613	False
270.315	6.71	6.71	277.025	1	PA_with_intermediate	test	ward_and_allport	82	12.0	6.71	to_hand	poldrack-single-stim	s613	False
277.026	0.1	0.41	277.436	0	PA_with_intermediate	test	ward_and_allport	71	12.0	0.41	to_board	poldrack-single-stim	s613	False
277.441	0.1	1.327	278.768	0	PA_with_intermediate	test	ward_and_allport	82	12.0	1.327	to_hand	poldrack-single-stim	s613	False
278.769	0.1	0.329	279.098	0	PA_with_intermediate	test	ward_and_allport	89	12.0	0.329	to_board	poldrack-single-stim	s613	False
279.104	0.1	1.268	280.372	0	PA_with_intermediate	test	ward_and_allport	71	12.0	1.268	to_hand	poldrack-single-stim	s613	False
280.373	0.1	0.73	281.103	0	PA_with_intermediate	test	ward_and_allport	82	12.0	0.73	to_board	poldrack-single-stim	s613	False
281.11	1.0	4.176	281.109	0	PA_with_intermediate	test	ward_and_allport	-1	12.0	n/a	feedback	poldrack-single-stim	s613	False
285.292	3.138	3.138	288.43	1	PA_with_intermediate	test	ward_and_allport	71	13.0	3.138	to_hand	poldrack-single-stim	s613	False
288.431	0.1	1.065	289.496	0	PA_with_intermediate	test	ward_and_allport	82	13.0	1.065	to_board	poldrack-single-stim	s613	False
289.502	0.1	0.606	290.108	0	PA_with_intermediate	test	ward_and_allport	71	13.0	0.606	to_hand	poldrack-single-stim	s613	False
290.109	0.1	0.314	290.423	0	PA_with_intermediate	test	ward_and_allport	89	13.0	0.314	to_board	poldrack-single-stim	s613	False
290.429	0.1	0.445	290.874	0	PA_with_intermediate	test	ward_and_allport	71	13.0	0.445	to_hand	poldrack-single-stim	s613	False
290.875	0.1	1.672	292.547	0	PA_with_intermediate	test	ward_and_allport	71	13.0	1.672	to_board	poldrack-single-stim	s613	False
292.553	0.1	0.521	293.074	0	PA_with_intermediate	test	ward_and_allport	82	13.0	0.521	to_hand	poldrack-single-stim	s613	False
293.075	0.1	0.259	293.334	0	PA_with_intermediate	test	ward_and_allport	89	13.0	0.259	to_board	poldrack-single-stim	s613	False
293.345	1.0	3.36	293.344	0	PA_with_intermediate	test	ward_and_allport	-1	13.0	n/a	feedback	poldrack-single-stim	s613	False
296.711	11.525	11.525	308.236	1	PA_with_intermediate	test	ward_and_allport	71	14.0	11.525	to_hand	poldrack-single-stim	s613	False
308.238	0.1	0.445	308.683	0	PA_with_intermediate	test	ward_and_allport	82	14.0	0.445	to_board	poldrack-single-stim	s613	False
308.689	0.1	0.457	309.146	0	PA_with_intermediate	test	ward_and_allport	71	14.0	0.457	to_hand	poldrack-single-stim	s613	False
309.147	0.1	0.436	309.583	0	PA_with_intermediate	test	ward_and_allport	89	14.0	0.436	to_board	poldrack-single-stim	s613	False
309.589	0.1	0.647	310.236	0	PA_with_intermediate	test	ward_and_allport	82	14.0	0.647	to_hand	poldrack-single-stim	s613	False
310.237	0.1	0.387	310.624	0	PA_with_intermediate	test	ward_and_allport	71	14.0	0.387	to_board	poldrack-single-stim	s613	False
310.63	1.0	2.0	310.629	0	PA_with_intermediate	test	ward_and_allport	-1	14.0	n/a	feedback	poldrack-single-stim	s613	False
317.639	6.185	6.185	323.824	1	PA_without_intermediate	test	ward_and_allport	89	15.0	6.185	to_hand	poldrack-single-stim	s613	False
323.825	0.1	0.322	324.147	0	PA_without_intermediate	test	ward_and_allport	82	15.0	0.322	to_board	poldrack-single-stim	s613	False
324.153	0.1	1.241	325.394	0	PA_without_intermediate	test	ward_and_allport	89	15.0	1.241	to_hand	poldrack-single-stim	s613	False
325.395	0.1	0.605	326.0	0	PA_without_intermediate	test	ward_and_allport	71	15.0	0.605	to_board	poldrack-single-stim	s613	False
326.006	0.1	1.457	327.463	0	PA_without_intermediate	test	ward_and_allport	71	15.0	1.457	to_hand	poldrack-single-stim	s613	False
327.464	0.1	0.323	327.787	0	PA_without_intermediate	test	ward_and_allport	82	15.0	0.323	to_board	poldrack-single-stim	s613	False
327.793	0.1	0.709	328.502	0	PA_without_intermediate	test	ward_and_allport	89	15.0	0.709	to_hand	poldrack-single-stim	s613	False
328.503	0.1	0.302	328.805	0	PA_without_intermediate	test	ward_and_allport	71	15.0	0.302	to_board	poldrack-single-stim	s613	False
328.814	1.0	2.408	328.813	0	PA_without_intermediate	test	ward_and_allport	-1	15.0	n/a	feedback	poldrack-single-stim	s613	False
331.229	5.111	5.111	336.34	1	PA_with_intermediate	test	ward_and_allport	89	16.0	5.111	to_hand	poldrack-single-stim	s613	False
336.34	0.1	0.403	336.743	0	PA_with_intermediate	test	ward_and_allport	71	16.0	0.403	to_board	poldrack-single-stim	s613	False
336.75	0.1	1.57	338.32	0	PA_with_intermediate	test	ward_and_allport	89	16.0	1.57	to_hand	poldrack-single-stim	s613	False
338.321	0.1	0.324	338.645	0	PA_with_intermediate	test	ward_and_allport	82	16.0	0.324	to_board	poldrack-single-stim	s613	False
338.65	0.1	0.878	339.528	0	PA_with_intermediate	test	ward_and_allport	71	16.0	0.878	to_hand	poldrack-single-stim	s613	False
339.53	0.1	0.912	340.442	0	PA_with_intermediate	test	ward_and_allport	82	16.0	0.912	to_board	poldrack-single-stim	s613	False
340.449	1.0	2.816	340.448	0	PA_with_intermediate	test	ward_and_allport	-1	16.0	n/a	feedback	poldrack-single-stim	s613	False
343.271	7.407	7.407	350.678	1	PA_without_intermediate	test	ward_and_allport	71	17.0	7.407	to_hand	poldrack-single-stim	s613	False
350.678	0.1	0.333	351.011	0	PA_without_intermediate	test	ward_and_allport	89	17.0	0.333	to_board	poldrack-single-stim	s613	False
351.018	0.1	0.916	351.934	0	PA_without_intermediate	test	ward_and_allport	71	17.0	0.916	to_hand	poldrack-single-stim	s613	False
351.935	0.1	0.363	352.298	0	PA_without_intermediate	test	ward_and_allport	89	17.0	0.363	to_board	poldrack-single-stim	s613	False
352.304	0.1	0.821	353.125	0	PA_without_intermediate	test	ward_and_allport	71	17.0	0.821	to_hand	poldrack-single-stim	s613	False
353.126	0.1	0.377	353.503	0	PA_without_intermediate	test	ward_and_allport	82	17.0	0.377	to_board	poldrack-single-stim	s613	False
353.51	1.0	3.088	353.509	0	PA_without_intermediate	test	ward_and_allport	-1	17.0	n/a	feedback	poldrack-single-stim	s613	False
356.605	5.84	5.84	362.445	1	PA_without_intermediate	test	ward_and_allport	89	18.0	5.84	to_hand	poldrack-single-stim	s613	False
362.446	0.1	0.329	362.775	0	PA_without_intermediate	test	ward_and_allport	82	18.0	0.329	to_board	poldrack-single-stim	s613	False
362.782	0.1	1.405	364.187	0	PA_without_intermediate	test	ward_and_allport	89	18.0	1.405	to_hand	poldrack-single-stim	s613	False
364.188	0.1	0.453	364.641	0	PA_without_intermediate	test	ward_and_allport	71	18.0	0.453	to_board	poldrack-single-stim	s613	False
364.647	0.1	1.728	366.375	0	PA_without_intermediate	test	ward_and_allport	89	18.0	1.728	to_hand	poldrack-single-stim	s613	False
366.376	0.1	0.44	366.816	0	PA_without_intermediate	test	ward_and_allport	82	18.0	0.44	to_board	poldrack-single-stim	s613	False
366.825	1.0	2.136	366.824	0	PA_without_intermediate	test	ward_and_allport	-1	18.0	n/a	feedback	poldrack-single-stim	s613	False
368.967	5.243	5.243	374.21	1	PA_without_intermediate	test	ward_and_allport	71	19.0	5.243	to_hand	poldrack-single-stim	s613	False
374.212	0.1	0.314	374.526	0	PA_without_intermediate	test	ward_and_allport	89	19.0	0.314	to_board	poldrack-single-stim	s613	False
374.533	0.1	1.261	375.794	0	PA_without_intermediate	test	ward_and_allport	71	19.0	1.261	to_hand	poldrack-single-stim	s613	False
375.795	0.1	0.376	376.171	0	PA_without_intermediate	test	ward_and_allport	89	19.0	0.376	to_board	poldrack-single-stim	s613	False
376.178	0.1	1.453	377.631	0	PA_without_intermediate	test	ward_and_allport	71	19.0	1.453	to_hand	poldrack-single-stim	s613	False
377.632	0.1	0.358	377.99	0	PA_without_intermediate	test	ward_and_allport	82	19.0	0.358	to_board	poldrack-single-stim	s613	False
378.001	1.0	7.168	378.0	0	PA_without_intermediate	test	ward_and_allport	-1	19.0	n/a	feedback	poldrack-single-stim	s613	False
385.175	3.381	3.381	388.556	1	PA_without_intermediate	test	ward_and_allport	71	20.0	3.381	to_hand	poldrack-single-stim	s613	False
388.557	0.1	0.436	388.993	0	PA_without_intermediate	test	ward_and_allport	82	20.0	0.436	to_board	poldrack-single-stim	s613	False
389.0	0.1	0.876	389.876	0	PA_without_intermediate	test	ward_and_allport	71	20.0	0.876	to_hand	poldrack-single-stim	s613	False
389.877	0.1	0.333	390.21	0	PA_without_intermediate	test	ward_and_allport	82	20.0	0.333	to_board	poldrack-single-stim	s613	False
390.218	0.1	0.556	390.774	0	PA_without_intermediate	test	ward_and_allport	71	20.0	0.556	to_hand	poldrack-single-stim	s613	False
390.775	0.1	0.267	391.042	0	PA_without_intermediate	test	ward_and_allport	89	20.0	0.267	to_board	poldrack-single-stim	s613	False
391.051	1.0	2.816	391.05	0	PA_without_intermediate	test	ward_and_allport	-1	20.0	n/a	feedback	poldrack-single-stim	s613	False
393.875	11.259	11.259	405.134	1	PA_with_intermediate	test	ward_and_allport	82	21.0	11.259	to_hand	poldrack-single-stim	s613	False
405.135	0.1	0.608	405.743	0	PA_with_intermediate	test	ward_and_allport	71	21.0	0.608	to_board	poldrack-single-stim	s613	False
405.752	0.1	2.047	407.799	0	PA_with_intermediate	test	ward_and_allport	82	21.0	2.047	to_hand	poldrack-single-stim	s613	False
407.8	0.1	0.362	408.162	0	PA_with_intermediate	test	ward_and_allport	89	21.0	0.362	to_board	poldrack-single-stim	s613	False
408.17	0.1	1.065	409.235	0	PA_with_intermediate	test	ward_and_allport	71	21.0	1.065	to_hand	poldrack-single-stim	s613	False
409.237	0.1	0.318	409.555	0	PA_with_intermediate	test	ward_and_allport	82	21.0	0.318	to_board	poldrack-single-stim	s613	False
409.566	1.0	2.952	409.565	0	PA_with_intermediate	test	ward_and_allport	-1	21.0	n/a	feedback	poldrack-single-stim	s613	False
412.526	6.025	6.025	418.551	1	PA_with_intermediate	test	ward_and_allport	89	22.0	6.025	to_hand	poldrack-single-stim	s613	False
418.552	0.1	0.221	418.773	0	PA_with_intermediate	test	ward_and_allport	71	22.0	0.221	to_board	poldrack-single-stim	s613	False
418.781	0.1	1.935	420.716	0	PA_with_intermediate	test	ward_and_allport	89	22.0	1.935	to_hand	poldrack-single-stim	s613	False
420.717	0.1	0.379	421.096	0	PA_with_intermediate	test	ward_and_allport	82	22.0	0.379	to_board	poldrack-single-stim	s613	False
421.103	0.1	1.216	422.319	0	PA_with_intermediate	test	ward_and_allport	71	22.0	1.216	to_hand	poldrack-single-stim	s613	False
422.32	0.1	0.315	422.635	0	PA_with_intermediate	test	ward_and_allport	89	22.0	0.315	to_board	poldrack-single-stim	s613	False
422.643	1.0	2.136	422.642	0	PA_with_intermediate	test	ward_and_allport	-1	22.0	n/a	feedback	poldrack-single-stim	s613	False
424.788	4.603	4.603	429.391	1	PA_without_intermediate	test	ward_and_allport	89	23.0	4.603	to_hand	poldrack-single-stim	s613	False
429.392	0.1	0.261	429.653	0	PA_without_intermediate	test	ward_and_allport	71	23.0	0.261	to_board	poldrack-single-stim	s613	False
429.661	0.1	1.189	430.85	0	PA_without_intermediate	test	ward_and_allport	89	23.0	1.189	to_hand	poldrack-single-stim	s613	False
430.851	0.1	0.326	431.177	0	PA_without_intermediate	test	ward_and_allport	82	23.0	0.326	to_board	poldrack-single-stim	s613	False
431.186	0.1	0.845	432.031	0	PA_without_intermediate	test	ward_and_allport	89	23.0	0.845	to_hand	poldrack-single-stim	s613	False
432.032	0.1	0.265	432.297	0	PA_without_intermediate	test	ward_and_allport	71	23.0	0.265	to_board	poldrack-single-stim	s613	False
432.307	1.0	2.68	432.306	0	PA_without_intermediate	test	ward_and_allport	-1	23.0	n/a	feedback	poldrack-single-stim	s613	False
434.995	3.009	3.009	438.004	1	PA_without_intermediate	test	ward_and_allport	89	24.0	3.009	to_hand	poldrack-single-stim	s613	False
438.005	0.1	0.682	438.687	0	PA_without_intermediate	test	ward_and_allport	82	24.0	0.682	to_board	poldrack-single-stim	s613	False
438.692	0.1	0.808	439.5	0	PA_without_intermediate	test	ward_and_allport	89	24.0	0.808	to_hand	poldrack-single-stim	s613	False
439.5	0.1	0.396	439.896	0	PA_without_intermediate	test	ward_and_allport	82	24.0	0.396	to_board	poldrack-single-stim	s613	False
439.905	0.1	0.638	440.543	0	PA_without_intermediate	test	ward_and_allport	89	24.0	0.638	to_hand	poldrack-single-stim	s613	False
440.544	0.1	0.34	440.884	0	PA_without_intermediate	test	ward_and_allport	71	24.0	0.34	to_board	poldrack-single-stim	s613	False
440.897	1.0	3.088	440.896	0	PA_without_intermediate	test	ward_and_allport	-1	24.0	n/a	feedback	poldrack-single-stim	s613	False
443.991	4.651	4.651	448.642	1	PA_with_intermediate	test	ward_and_allport	82	25.0	4.651	to_hand	poldrack-single-stim	s613	False
448.643	0.1	0.25	448.893	0	PA_with_intermediate	test	ward_and_allport	71	25.0	0.25	to_board	poldrack-single-stim	s613	False
448.899	0.1	0.948	449.847	0	PA_with_intermediate	test	ward_and_allport	82	25.0	0.948	to_hand	poldrack-single-stim	s613	False
449.849	0.1	0.231	450.08	0	PA_with_intermediate	test	ward_and_allport	89	25.0	0.231	to_board	poldrack-single-stim	s613	False
450.089	0.1	0.694	450.783	0	PA_with_intermediate	test	ward_and_allport	71	25.0	0.694	to_hand	poldrack-single-stim	s613	False
450.784	0.1	0.255	451.039	0	PA_with_intermediate	test	ward_and_allport	89	25.0	0.255	to_board	poldrack-single-stim	s613	False
451.051	1.0	2.0	451.05	0	PA_with_intermediate	test	ward_and_allport	-1	25.0	n/a	feedback	poldrack-single-stim	s613	False
453.06	4.866	4.866	457.926	1	PA_without_intermediate	test	ward_and_allport	82	26.0	4.866	to_hand	poldrack-single-stim	s613	False
457.927	0.1	0.296	458.223	0	PA_without_intermediate	test	ward_and_allport	71	26.0	0.296	to_board	poldrack-single-stim	s613	False
458.231	0.1	0.651	458.882	0	PA_without_intermediate	test	ward_and_allport	82	26.0	0.651	to_hand	poldrack-single-stim	s613	False
458.883	0.1	0.282	459.165	0	PA_without_intermediate	test	ward_and_allport	71	26.0	0.282	to_board	poldrack-single-stim	s613	False
459.174	0.1	1.125	460.299	0	PA_without_intermediate	test	ward_and_allport	82	26.0	1.125	to_hand	poldrack-single-stim	s613	False
460.301	0.1	0.258	460.559	0	PA_without_intermediate	test	ward_and_allport	89	26.0	0.258	to_board	poldrack-single-stim	s613	False
460.571	1.0	2.0	460.57	0	PA_without_intermediate	test	ward_and_allport	-1	26.0	n/a	feedback	poldrack-single-stim	s613	False
462.58	3.786	3.786	466.366	1	PA_without_intermediate	test	ward_and_allport	82	27.0	3.786	to_hand	poldrack-single-stim	s613	False
466.367	0.1	0.238	466.605	0	PA_without_intermediate	test	ward_and_allport	89	27.0	0.238	to_board	poldrack-single-stim	s613	False
466.611	0.1	0.4	467.011	0	PA_without_intermediate	test	ward_and_allport	82	27.0	0.4	to_hand	poldrack-single-stim	s613	False
467.012	0.1	0.467	467.479	0	PA_without_intermediate	test	ward_and_allport	89	27.0	0.467	to_board	poldrack-single-stim	s613	False
467.487	0.1	0.601	468.088	0	PA_without_intermediate	test	ward_and_allport	82	27.0	0.601	to_hand	poldrack-single-stim	s613	False
468.089	0.1	0.28	468.369	0	PA_without_intermediate	test	ward_and_allport	71	27.0	0.28	to_board	poldrack-single-stim	s613	False
468.378	1.0	2.0	468.377	0	PA_without_intermediate	test	ward_and_allport	-1	27.0	n/a	feedback	poldrack-single-stim	s613	False
470.384	5.638	5.638	476.022	1	PA_with_intermediate	test	ward_and_allport	71	28.0	5.638	to_hand	poldrack-single-stim	s613	False
476.022	0.1	0.327	476.349	0	PA_with_intermediate	test	ward_and_allport	89	28.0	0.327	to_board	poldrack-single-stim	s613	False
476.356	0.1	0.67	477.026	0	PA_with_intermediate	test	ward_and_allport	71	28.0	0.67	to_hand	poldrack-single-stim	s613	False
477.026	0.1	0.267	477.293	0	PA_with_intermediate	test	ward_and_allport	82	28.0	0.267	to_board	poldrack-single-stim	s613	False
477.303	0.1	0.608	477.911	0	PA_with_intermediate	test	ward_and_allport	89	28.0	0.608	to_hand	poldrack-single-stim	s613	False
477.912	0.1	0.323	478.235	0	PA_with_intermediate	test	ward_and_allport	71	28.0	0.323	to_board	poldrack-single-stim	s613	False
478.246	1.0	2.544	478.245	0	PA_with_intermediate	test	ward_and_allport	-1	28.0	n/a	feedback	poldrack-single-stim	s613	False
480.799	3.548	3.548	484.347	1	PA_without_intermediate	test	ward_and_allport	71	29.0	3.548	to_hand	poldrack-single-stim	s613	False
484.348	0.1	0.195	484.543	0	PA_without_intermediate	test	ward_and_allport	89	29.0	0.195	to_board	poldrack-single-stim	s613	False
484.551	0.1	0.756	485.307	0	PA_without_intermediate	test	ward_and_allport	71	29.0	0.756	to_hand	poldrack-single-stim	s613	False
485.307	0.1	0.254	485.561	0	PA_without_intermediate	test	ward_and_allport	82	29.0	0.254	to_board	poldrack-single-stim	s613	False
485.571	0.1	0.494	486.065	0	PA_without_intermediate	test	ward_and_allport	71	29.0	0.494	to_hand	poldrack-single-stim	s613	False
486.066	0.1	0.209	486.275	0	PA_without_intermediate	test	ward_and_allport	89	29.0	0.209	to_board	poldrack-single-stim	s613	False
486.283	1.0	2.272	486.282	0	PA_without_intermediate	test	ward_and_allport	-1	29.0	n/a	feedback	poldrack-single-stim	s613	False
493.564	6.621	6.621	500.185	1	PA_with_intermediate	test	ward_and_allport	89	30.0	6.621	to_hand	poldrack-single-stim	s613	False
500.186	0.1	0.584	500.77	0	PA_with_intermediate	test	ward_and_allport	82	30.0	0.584	to_board	poldrack-single-stim	s613	False
500.779	0.1	0.692	501.471	0	PA_with_intermediate	test	ward_and_allport	89	30.0	0.692	to_hand	poldrack-single-stim	s613	False
501.472	0.1	0.471	501.943	0	PA_with_intermediate	test	ward_and_allport	71	30.0	0.471	to_board	poldrack-single-stim	s613	False
501.951	0.1	0.61	502.561	0	PA_with_intermediate	test	ward_and_allport	82	30.0	0.61	to_hand	poldrack-single-stim	s613	False
502.562	0.1	0.319	502.881	0	PA_with_intermediate	test	ward_and_allport	89	30.0	0.319	to_board	poldrack-single-stim	s613	False
502.894	1.0	4.04	502.893	0	PA_with_intermediate	test	ward_and_allport	-1	30.0	n/a	feedback	poldrack-single-stim	s613	False
506.941	5.458	5.458	512.399	1	PA_with_intermediate	test	ward_and_allport	89	31.0	5.458	to_hand	poldrack-single-stim	s613	False
512.401	0.1	0.226	512.627	0	PA_with_intermediate	test	ward_and_allport	82	31.0	0.226	to_board	poldrack-single-stim	s613	False
512.634	0.1	2.296	514.93	0	PA_with_intermediate	test	ward_and_allport	89	31.0	2.296	to_hand	poldrack-single-stim	s613	False
514.932	0.1	0.338	515.27	0	PA_with_intermediate	test	ward_and_allport	71	31.0	0.338	to_board	poldrack-single-stim	s613	False
515.279	0.1	0.445	515.724	0	PA_with_intermediate	test	ward_and_allport	82	31.0	0.445	to_hand	poldrack-single-stim	s613	False
515.725	0.1	0.432	516.157	0	PA_with_intermediate	test	ward_and_allport	71	31.0	0.432	to_board	poldrack-single-stim	s613	False
516.167	1.0	2.272	516.166	0	PA_with_intermediate	test	ward_and_allport	-1	31.0	n/a	feedback	poldrack-single-stim	s613	False
518.448	7.193	7.193	525.641	1	PA_with_intermediate	test	ward_and_allport	82	32.0	7.193	to_hand	poldrack-single-stim	s613	False
525.641	0.1	0.387	526.028	0	PA_with_intermediate	test	ward_and_allport	89	32.0	0.387	to_board	poldrack-single-stim	s613	False
526.035	0.1	1.098	527.133	0	PA_with_intermediate	test	ward_and_allport	82	32.0	1.098	to_hand	poldrack-single-stim	s613	False
527.134	0.1	0.523	527.657	0	PA_with_intermediate	test	ward_and_allport	71	32.0	0.523	to_board	poldrack-single-stim	s613	False
527.666	0.1	0.592	528.258	0	PA_with_intermediate	test	ward_and_allport	89	32.0	0.592	to_hand	poldrack-single-stim	s613	False
528.259	0.1	0.233	528.492	0	PA_with_intermediate	test	ward_and_allport	82	32.0	0.233	to_board	poldrack-single-stim	s613	False
528.505	1.0	2.136	528.504	0	PA_with_intermediate	test	ward_and_allport	-1	32.0	n/a	feedback	poldrack-single-stim	s613	False
530.65	7.162	7.162	537.812	1	PA_with_intermediate	test	ward_and_allport	71	33.0	7.162	to_hand	poldrack-single-stim	s613	False
537.812	0.1	0.197	538.009	0	PA_with_intermediate	test	ward_and_allport	89	33.0	0.197	to_board	poldrack-single-stim	s613	False
538.019	0.1	1.162	539.181	0	PA_with_intermediate	test	ward_and_allport	71	33.0	1.162	to_hand	poldrack-single-stim	s613	False
539.183	0.1	0.204	539.387	0	PA_with_intermediate	test	ward_and_allport	82	33.0	0.204	to_board	poldrack-single-stim	s613	False
539.397	0.1	0.769	540.166	0	PA_with_intermediate	test	ward_and_allport	89	33.0	0.769	to_hand	poldrack-single-stim	s613	False
540.167	0.1	0.198	540.365	0	PA_with_intermediate	test	ward_and_allport	71	33.0	0.198	to_board	poldrack-single-stim	s613	False
540.379	1.0	2.0	540.378	0	PA_with_intermediate	test	ward_and_allport	-1	33.0	n/a	feedback	poldrack-single-stim	s613	False
542.389	6.177	6.177	548.566	1	PA_with_intermediate	test	ward_and_allport	82	34.0	6.177	to_hand	poldrack-single-stim	s613	False
548.567	0.1	0.294	548.861	0	PA_with_intermediate	test	ward_and_allport	71	34.0	0.294	to_board	poldrack-single-stim	s613	False
548.871	0.1	0.928	549.799	0	PA_with_intermediate	test	ward_and_allport	82	34.0	0.928	to_hand	poldrack-single-stim	s613	False
549.8	0.1	0.363	550.163	0	PA_with_intermediate	test	ward_and_allport	89	34.0	0.363	to_board	poldrack-single-stim	s613	False
550.173	0.1	1.002	551.175	0	PA_with_intermediate	test	ward_and_allport	71	34.0	1.002	to_hand	poldrack-single-stim	s613	False
551.176	0.1	0.281	551.457	0	PA_with_intermediate	test	ward_and_allport	89	34.0	0.281	to_board	poldrack-single-stim	s613	False
551.473	1.0	2.0	551.472	0	PA_with_intermediate	test	ward_and_allport	-1	34.0	n/a	feedback	poldrack-single-stim	s613	False
553.482	11.992	11.992	565.474	1	PA_without_intermediate	test	ward_and_allport	89	35.0	11.992	to_hand	poldrack-single-stim	s613	False
565.475	0.1	0.215	565.69	0	PA_without_intermediate	test	ward_and_allport	71	35.0	0.215	to_board	poldrack-single-stim	s613	False
565.701	0.1	1.1	566.801	0	PA_without_intermediate	test	ward_and_allport	89	35.0	1.1	to_hand	poldrack-single-stim	s613	False
566.802	0.1	0.298	567.1	0	PA_without_intermediate	test	ward_and_allport	71	35.0	0.298	to_board	poldrack-single-stim	s613	False
567.107	0.1	0.565	567.672	0	PA_without_intermediate	test	ward_and_allport	89	35.0	0.565	to_hand	poldrack-single-stim	s613	False
567.673	0.1	0.165	567.838	0	PA_without_intermediate	test	ward_and_allport	82	35.0	0.165	to_board	poldrack-single-stim	s613	False
567.85	1.0	2.408	567.849	0	PA_without_intermediate	test	ward_and_allport	-1	35.0	n/a	feedback	poldrack-single-stim	s613	False
