onset	duration	block_duration	movement_onset	planning	condition	exp_stage	experiment_exp_id	key_press	problem_id	response_time	trial_id	trial_type	worker_id	junk
3.007	6.456	6.456	9.463	1	UA_with_intermediate	practice	ward_and_allport	71	0.0	6.456	to_hand	poldrack-single-stim	s251	False
9.465	0.1	1.362	10.827	0	UA_with_intermediate	practice	ward_and_allport	82	0.0	1.362	to_board	poldrack-single-stim	s251	False
10.829	0.1	1.251	12.08	0	UA_with_intermediate	practice	ward_and_allport	71	0.0	1.251	to_hand	poldrack-single-stim	s251	False
12.082	0.1	0.573	12.655	0	UA_with_intermediate	practice	ward_and_allport	89	0.0	0.573	to_board	poldrack-single-stim	s251	False
12.656	0.1	1.054	13.71	0	UA_with_intermediate	practice	ward_and_allport	82	0.0	1.054	to_hand	poldrack-single-stim	s251	False
13.711	0.1	0.805	14.516	0	UA_with_intermediate	practice	ward_and_allport	89	0.0	0.805	to_board	poldrack-single-stim	s251	False
14.519	1.0	2.5	14.518	0	UA_with_intermediate	practice	ward_and_allport	-1	0.0	n/a	feedback	poldrack-single-stim	s251	False
17.02	3.946	3.946	20.966	1	UA_with_intermediate	practice	ward_and_allport	89	1.0	3.946	to_hand	poldrack-single-stim	s251	False
20.967	0.1	0.871	21.838	0	UA_with_intermediate	practice	ward_and_allport	82	1.0	0.871	to_board	poldrack-single-stim	s251	False
21.841	0.1	0.782	22.623	0	UA_with_intermediate	practice	ward_and_allport	71	1.0	0.782	to_hand	poldrack-single-stim	s251	False
22.624	0.1	0.479	23.103	0	UA_with_intermediate	practice	ward_and_allport	89	1.0	0.479	to_board	poldrack-single-stim	s251	False
23.103	0.1	0.622	23.725	0	UA_with_intermediate	practice	ward_and_allport	82	1.0	0.622	to_hand	poldrack-single-stim	s251	False
23.726	0.1	0.537	24.263	0	UA_with_intermediate	practice	ward_and_allport	89	1.0	0.537	to_board	poldrack-single-stim	s251	False
24.266	1.0	2.1	24.265	0	UA_with_intermediate	practice	ward_and_allport	-1	1.0	n/a	feedback	poldrack-single-stim	s251	False
26.367	3.351	3.351	29.718	1	UA_without_intermediate	practice	ward_and_allport	82	2.0	3.351	to_hand	poldrack-single-stim	s251	False
29.719	0.1	0.707	30.426	0	UA_without_intermediate	practice	ward_and_allport	89	2.0	0.707	to_board	poldrack-single-stim	s251	False
30.429	0.1	0.751	31.18	0	UA_without_intermediate	practice	ward_and_allport	71	2.0	0.751	to_hand	poldrack-single-stim	s251	False
31.182	0.1	0.443	31.625	0	UA_without_intermediate	practice	ward_and_allport	89	2.0	0.443	to_board	poldrack-single-stim	s251	False
31.627	0.1	0.905	32.532	0	UA_without_intermediate	practice	ward_and_allport	71	2.0	0.905	to_hand	poldrack-single-stim	s251	False
32.532	0.1	0.338	32.87	0	UA_without_intermediate	practice	ward_and_allport	89	2.0	0.338	to_board	poldrack-single-stim	s251	False
32.873	1.0	2.2	32.872	0	UA_without_intermediate	practice	ward_and_allport	-1	2.0	n/a	feedback	poldrack-single-stim	s251	False
35.075	3.701	3.701	38.776	1	UA_without_intermediate	practice	ward_and_allport	71	3.0	3.701	to_hand	poldrack-single-stim	s251	False
38.777	0.1	0.506	39.283	0	UA_without_intermediate	practice	ward_and_allport	89	3.0	0.506	to_board	poldrack-single-stim	s251	False
39.284	0.1	1.241	40.525	0	UA_without_intermediate	practice	ward_and_allport	82	3.0	1.241	to_hand	poldrack-single-stim	s251	False
40.526	0.1	0.826	41.352	0	UA_without_intermediate	practice	ward_and_allport	89	3.0	0.826	to_board	poldrack-single-stim	s251	False
41.354	0.1	0.78	42.134	0	UA_without_intermediate	practice	ward_and_allport	71	3.0	0.78	to_hand	poldrack-single-stim	s251	False
42.135	0.1	0.441	42.576	0	UA_without_intermediate	practice	ward_and_allport	89	3.0	0.441	to_board	poldrack-single-stim	s251	False
42.58	1.0	2.0	42.579	0	UA_without_intermediate	practice	ward_and_allport	-1	3.0	n/a	feedback	poldrack-single-stim	s251	False
46.584	3.914	3.914	50.498	1	PA_with_intermediate	test	ward_and_allport	82	0.0	3.914	to_hand	poldrack-single-stim	s251	False
50.499	0.1	0.541	51.04	0	PA_with_intermediate	test	ward_and_allport	89	0.0	0.541	to_board	poldrack-single-stim	s251	False
51.042	0.1	3.961	55.003	0	PA_with_intermediate	test	ward_and_allport	82	0.0	3.961	to_hand	poldrack-single-stim	s251	False
55.003	0.1	0.577	55.58	0	PA_with_intermediate	test	ward_and_allport	71	0.0	0.577	to_board	poldrack-single-stim	s251	False
55.582	0.1	0.801	56.383	0	PA_with_intermediate	test	ward_and_allport	82	0.0	0.801	to_hand	poldrack-single-stim	s251	False
56.385	0.1	4.357	60.742	0	PA_with_intermediate	test	ward_and_allport	82	0.0	4.357	to_board	poldrack-single-stim	s251	False
60.744	0.1	1.314	62.058	0	PA_with_intermediate	test	ward_and_allport	89	0.0	1.314	to_hand	poldrack-single-stim	s251	False
62.059	0.1	0.939	62.998	0	PA_with_intermediate	test	ward_and_allport	82	0.0	0.939	to_board	poldrack-single-stim	s251	False
63.001	1.0	2.408	63.0	0	PA_with_intermediate	test	ward_and_allport	-1	0.0	n/a	feedback	poldrack-single-stim	s251	False
65.411	3.257	3.257	68.668	1	PA_without_intermediate	test	ward_and_allport	71	1.0	3.257	to_hand	poldrack-single-stim	s251	False
68.669	0.1	0.499	69.168	0	PA_without_intermediate	test	ward_and_allport	89	1.0	0.499	to_board	poldrack-single-stim	s251	False
69.171	0.1	0.809	69.98	0	PA_without_intermediate	test	ward_and_allport	71	1.0	0.809	to_hand	poldrack-single-stim	s251	False
69.982	0.1	0.751	70.733	0	PA_without_intermediate	test	ward_and_allport	89	1.0	0.751	to_board	poldrack-single-stim	s251	False
70.735	0.1	1.204	71.939	0	PA_without_intermediate	test	ward_and_allport	71	1.0	1.204	to_hand	poldrack-single-stim	s251	False
71.94	0.1	0.419	72.359	0	PA_without_intermediate	test	ward_and_allport	82	1.0	0.419	to_board	poldrack-single-stim	s251	False
72.361	1.0	2.68	72.36	0	PA_without_intermediate	test	ward_and_allport	-1	1.0	n/a	feedback	poldrack-single-stim	s251	False
75.044	3.596	3.596	78.64	1	PA_with_intermediate	test	ward_and_allport	71	2.0	3.596	to_hand	poldrack-single-stim	s251	False
78.641	0.1	0.592	79.233	0	PA_with_intermediate	test	ward_and_allport	82	2.0	0.592	to_board	poldrack-single-stim	s251	False
79.235	0.1	0.596	79.831	0	PA_with_intermediate	test	ward_and_allport	71	2.0	0.596	to_hand	poldrack-single-stim	s251	False
79.832	0.1	0.546	80.378	0	PA_with_intermediate	test	ward_and_allport	89	2.0	0.546	to_board	poldrack-single-stim	s251	False
80.381	0.1	1.961	82.342	0	PA_with_intermediate	test	ward_and_allport	82	2.0	1.961	to_hand	poldrack-single-stim	s251	False
82.343	0.1	0.928	83.271	0	PA_with_intermediate	test	ward_and_allport	89	2.0	0.928	to_board	poldrack-single-stim	s251	False
83.275	1.0	4.72	83.274	0	PA_with_intermediate	test	ward_and_allport	-1	2.0	n/a	feedback	poldrack-single-stim	s251	False
87.997	3.023	3.023	91.02	1	PA_without_intermediate	test	ward_and_allport	82	3.0	3.023	to_hand	poldrack-single-stim	s251	False
91.022	0.1	0.555	91.577	0	PA_without_intermediate	test	ward_and_allport	71	3.0	0.555	to_board	poldrack-single-stim	s251	False
91.58	0.1	1.289	92.869	0	PA_without_intermediate	test	ward_and_allport	82	3.0	1.289	to_hand	poldrack-single-stim	s251	False
92.87	0.1	0.618	93.488	0	PA_without_intermediate	test	ward_and_allport	89	3.0	0.618	to_board	poldrack-single-stim	s251	False
93.49	0.1	0.934	94.424	0	PA_without_intermediate	test	ward_and_allport	82	3.0	0.934	to_hand	poldrack-single-stim	s251	False
94.425	0.1	0.707	95.132	0	PA_without_intermediate	test	ward_and_allport	71	3.0	0.707	to_board	poldrack-single-stim	s251	False
95.136	1.0	3.224	95.135	0	PA_without_intermediate	test	ward_and_allport	-1	3.0	n/a	feedback	poldrack-single-stim	s251	False
98.362	3.191	3.191	101.553	1	PA_without_intermediate	test	ward_and_allport	82	4.0	3.191	to_hand	poldrack-single-stim	s251	False
101.555	0.1	0.587	102.142	0	PA_without_intermediate	test	ward_and_allport	89	4.0	0.587	to_board	poldrack-single-stim	s251	False
102.145	0.1	0.932	103.077	0	PA_without_intermediate	test	ward_and_allport	82	4.0	0.932	to_hand	poldrack-single-stim	s251	False
103.078	0.1	0.943	104.021	0	PA_without_intermediate	test	ward_and_allport	89	4.0	0.943	to_board	poldrack-single-stim	s251	False
104.023	0.1	1.291	105.314	0	PA_without_intermediate	test	ward_and_allport	82	4.0	1.291	to_hand	poldrack-single-stim	s251	False
105.314	0.1	0.552	105.866	0	PA_without_intermediate	test	ward_and_allport	71	4.0	0.552	to_board	poldrack-single-stim	s251	False
105.869	1.0	2.272	105.868	0	PA_without_intermediate	test	ward_and_allport	-1	4.0	n/a	feedback	poldrack-single-stim	s251	False
108.144	3.581	3.581	111.725	1	PA_with_intermediate	test	ward_and_allport	82	5.0	3.581	to_hand	poldrack-single-stim	s251	False
111.726	0.1	0.553	112.279	0	PA_with_intermediate	test	ward_and_allport	71	5.0	0.553	to_board	poldrack-single-stim	s251	False
112.281	0.1	0.852	113.133	0	PA_with_intermediate	test	ward_and_allport	82	5.0	0.852	to_hand	poldrack-single-stim	s251	False
113.134	0.1	0.932	114.066	0	PA_with_intermediate	test	ward_and_allport	89	5.0	0.932	to_board	poldrack-single-stim	s251	False
114.069	0.1	0.543	114.612	0	PA_with_intermediate	test	ward_and_allport	71	5.0	0.543	to_hand	poldrack-single-stim	s251	False
114.613	0.1	0.59	115.203	0	PA_with_intermediate	test	ward_and_allport	89	5.0	0.59	to_board	poldrack-single-stim	s251	False
115.207	1.0	3.632	115.206	0	PA_with_intermediate	test	ward_and_allport	-1	5.0	n/a	feedback	poldrack-single-stim	s251	False
118.842	3.478	3.478	122.32	1	PA_without_intermediate	test	ward_and_allport	71	6.0	3.478	to_hand	poldrack-single-stim	s251	False
122.321	0.1	0.466	122.787	0	PA_without_intermediate	test	ward_and_allport	82	6.0	0.466	to_board	poldrack-single-stim	s251	False
122.79	0.1	1.822	124.612	0	PA_without_intermediate	test	ward_and_allport	71	6.0	1.822	to_hand	poldrack-single-stim	s251	False
124.613	0.1	0.48	125.093	0	PA_without_intermediate	test	ward_and_allport	89	6.0	0.48	to_board	poldrack-single-stim	s251	False
125.097	0.1	0.894	125.991	0	PA_without_intermediate	test	ward_and_allport	71	6.0	0.894	to_hand	poldrack-single-stim	s251	False
125.993	0.1	0.855	126.848	0	PA_without_intermediate	test	ward_and_allport	82	6.0	0.855	to_board	poldrack-single-stim	s251	False
126.852	1.0	2.408	126.851	0	PA_without_intermediate	test	ward_and_allport	-1	6.0	n/a	feedback	poldrack-single-stim	s251	False
129.264	3.441	3.441	132.705	1	PA_without_intermediate	test	ward_and_allport	89	7.0	3.441	to_hand	poldrack-single-stim	s251	False
132.705	0.1	0.517	133.222	0	PA_without_intermediate	test	ward_and_allport	82	7.0	0.517	to_board	poldrack-single-stim	s251	False
133.225	0.1	1.629	134.854	0	PA_without_intermediate	test	ward_and_allport	89	7.0	1.629	to_hand	poldrack-single-stim	s251	False
134.856	0.1	0.385	135.241	0	PA_without_intermediate	test	ward_and_allport	71	7.0	0.385	to_board	poldrack-single-stim	s251	False
135.243	0.1	0.455	135.698	0	PA_without_intermediate	test	ward_and_allport	89	7.0	0.455	to_hand	poldrack-single-stim	s251	False
135.699	0.1	0.536	136.235	0	PA_without_intermediate	test	ward_and_allport	82	7.0	0.536	to_board	poldrack-single-stim	s251	False
136.24	1.0	2.0	136.239	0	PA_without_intermediate	test	ward_and_allport	-1	7.0	n/a	feedback	poldrack-single-stim	s251	False
138.243	6.037	6.037	144.28	1	PA_with_intermediate	test	ward_and_allport	89	8.0	6.037	to_hand	poldrack-single-stim	s251	False
144.281	0.1	1.088	145.369	0	PA_with_intermediate	test	ward_and_allport	82	8.0	1.088	to_board	poldrack-single-stim	s251	False
145.373	0.1	1.539	146.912	0	PA_with_intermediate	test	ward_and_allport	89	8.0	1.539	to_hand	poldrack-single-stim	s251	False
146.913	0.1	0.591	147.504	0	PA_with_intermediate	test	ward_and_allport	71	8.0	0.591	to_board	poldrack-single-stim	s251	False
147.507	0.1	3.021	150.528	0	PA_with_intermediate	test	ward_and_allport	82	8.0	3.021	to_hand	poldrack-single-stim	s251	False
150.529	0.1	0.567	151.096	0	PA_with_intermediate	test	ward_and_allport	71	8.0	0.567	to_board	poldrack-single-stim	s251	False
151.101	1.0	2.0	151.1	0	PA_with_intermediate	test	ward_and_allport	-1	8.0	n/a	feedback	poldrack-single-stim	s251	False
153.106	6.008	6.008	159.114	1	PA_with_intermediate	test	ward_and_allport	89	9.0	6.008	to_hand	poldrack-single-stim	s251	False
159.114	0.1	0.546	159.66	0	PA_with_intermediate	test	ward_and_allport	71	9.0	0.546	to_board	poldrack-single-stim	s251	False
159.663	0.1	3.419	163.082	0	PA_with_intermediate	test	ward_and_allport	89	9.0	3.419	to_hand	poldrack-single-stim	s251	False
163.082	0.1	0.572	163.654	0	PA_with_intermediate	test	ward_and_allport	82	9.0	0.572	to_board	poldrack-single-stim	s251	False
163.658	0.1	3.237	166.895	0	PA_with_intermediate	test	ward_and_allport	71	9.0	3.237	to_hand	poldrack-single-stim	s251	False
166.895	0.1	0.648	167.543	0	PA_with_intermediate	test	ward_and_allport	89	9.0	0.648	to_board	poldrack-single-stim	s251	False
167.548	1.0	2.0	167.547	0	PA_with_intermediate	test	ward_and_allport	-1	9.0	n/a	feedback	poldrack-single-stim	s251	False
169.553	5.22	5.22	174.773	1	PA_with_intermediate	test	ward_and_allport	89	10.0	5.22	to_hand	poldrack-single-stim	s251	False
174.774	0.1	0.995	175.769	0	PA_with_intermediate	test	ward_and_allport	71	10.0	0.995	to_board	poldrack-single-stim	s251	False
175.775	0.1	0.565	176.34	0	PA_with_intermediate	test	ward_and_allport	89	10.0	0.565	to_hand	poldrack-single-stim	s251	False
176.34	0.1	0.49	176.83	0	PA_with_intermediate	test	ward_and_allport	82	10.0	0.49	to_board	poldrack-single-stim	s251	False
176.834	0.1	0.841	177.675	0	PA_with_intermediate	test	ward_and_allport	71	10.0	0.841	to_hand	poldrack-single-stim	s251	False
177.676	0.1	0.425	178.101	0	PA_with_intermediate	test	ward_and_allport	89	10.0	0.425	to_board	poldrack-single-stim	s251	False
178.107	1.0	2.408	178.106	0	PA_with_intermediate	test	ward_and_allport	-1	10.0	n/a	feedback	poldrack-single-stim	s251	False
180.52	3.25	3.25	183.77	1	PA_without_intermediate	test	ward_and_allport	82	11.0	3.25	to_hand	poldrack-single-stim	s251	False
183.772	0.1	0.822	184.594	0	PA_without_intermediate	test	ward_and_allport	71	11.0	0.822	to_board	poldrack-single-stim	s251	False
184.598	0.1	1.204	185.802	0	PA_without_intermediate	test	ward_and_allport	82	11.0	1.204	to_hand	poldrack-single-stim	s251	False
185.802	0.1	0.533	186.335	0	PA_without_intermediate	test	ward_and_allport	71	11.0	0.533	to_board	poldrack-single-stim	s251	False
186.34	0.1	0.458	186.798	0	PA_without_intermediate	test	ward_and_allport	82	11.0	0.458	to_hand	poldrack-single-stim	s251	False
186.799	0.1	0.459	187.258	0	PA_without_intermediate	test	ward_and_allport	89	11.0	0.459	to_board	poldrack-single-stim	s251	False
187.263	1.0	2.816	187.262	0	PA_without_intermediate	test	ward_and_allport	-1	11.0	n/a	feedback	poldrack-single-stim	s251	False
190.083	4.325	4.325	194.408	1	PA_with_intermediate	test	ward_and_allport	82	12.0	4.325	to_hand	poldrack-single-stim	s251	False
194.409	0.1	1.601	196.01	0	PA_with_intermediate	test	ward_and_allport	89	12.0	1.601	to_board	poldrack-single-stim	s251	False
196.014	0.1	0.574	196.588	0	PA_with_intermediate	test	ward_and_allport	82	12.0	0.574	to_hand	poldrack-single-stim	s251	False
196.59	0.1	0.498	197.088	0	PA_with_intermediate	test	ward_and_allport	71	12.0	0.498	to_board	poldrack-single-stim	s251	False
197.091	0.1	0.415	197.506	0	PA_with_intermediate	test	ward_and_allport	89	12.0	0.415	to_hand	poldrack-single-stim	s251	False
197.507	0.1	0.476	197.983	0	PA_with_intermediate	test	ward_and_allport	82	12.0	0.476	to_board	poldrack-single-stim	s251	False
197.988	1.0	4.176	197.987	0	PA_with_intermediate	test	ward_and_allport	-1	12.0	n/a	feedback	poldrack-single-stim	s251	False
202.169	6.926	6.926	209.095	1	PA_with_intermediate	test	ward_and_allport	71	13.0	6.926	to_hand	poldrack-single-stim	s251	False
209.096	0.1	0.502	209.598	0	PA_with_intermediate	test	ward_and_allport	89	13.0	0.502	to_board	poldrack-single-stim	s251	False
209.602	0.1	0.457	210.059	0	PA_with_intermediate	test	ward_and_allport	71	13.0	0.457	to_hand	poldrack-single-stim	s251	False
210.061	0.1	0.432	210.493	0	PA_with_intermediate	test	ward_and_allport	82	13.0	0.432	to_board	poldrack-single-stim	s251	False
210.496	0.1	1.317	211.813	0	PA_with_intermediate	test	ward_and_allport	89	13.0	1.317	to_hand	poldrack-single-stim	s251	False
211.815	0.1	0.577	212.392	0	PA_with_intermediate	test	ward_and_allport	71	13.0	0.577	to_board	poldrack-single-stim	s251	False
212.397	1.0	3.36	212.396	0	PA_with_intermediate	test	ward_and_allport	-1	13.0	n/a	feedback	poldrack-single-stim	s251	False
215.76	4.045	4.045	219.805	1	PA_with_intermediate	test	ward_and_allport	89	14.0	4.045	to_hand	poldrack-single-stim	s251	False
219.806	0.1	0.404	220.21	0	PA_with_intermediate	test	ward_and_allport	71	14.0	0.404	to_board	poldrack-single-stim	s251	False
220.214	0.1	0.63	220.844	0	PA_with_intermediate	test	ward_and_allport	89	14.0	0.63	to_hand	poldrack-single-stim	s251	False
220.844	0.1	0.445	221.289	0	PA_with_intermediate	test	ward_and_allport	82	14.0	0.445	to_board	poldrack-single-stim	s251	False
221.294	0.1	0.719	222.013	0	PA_with_intermediate	test	ward_and_allport	71	14.0	0.719	to_hand	poldrack-single-stim	s251	False
222.013	0.1	0.671	222.684	0	PA_with_intermediate	test	ward_and_allport	82	14.0	0.671	to_board	poldrack-single-stim	s251	False
222.689	1.0	2.0	222.688	0	PA_with_intermediate	test	ward_and_allport	-1	14.0	n/a	feedback	poldrack-single-stim	s251	False
229.695	4.387	4.387	234.082	1	PA_without_intermediate	test	ward_and_allport	89	15.0	4.387	to_hand	poldrack-single-stim	s251	False
234.083	0.1	0.504	234.587	0	PA_without_intermediate	test	ward_and_allport	82	15.0	0.504	to_board	poldrack-single-stim	s251	False
234.592	0.1	1.083	235.675	0	PA_without_intermediate	test	ward_and_allport	89	15.0	1.083	to_hand	poldrack-single-stim	s251	False
235.676	0.1	0.475	236.151	0	PA_without_intermediate	test	ward_and_allport	71	15.0	0.475	to_board	poldrack-single-stim	s251	False
236.155	0.1	0.399	236.554	0	PA_without_intermediate	test	ward_and_allport	89	15.0	0.399	to_hand	poldrack-single-stim	s251	False
236.556	0.1	0.368	236.924	0	PA_without_intermediate	test	ward_and_allport	82	15.0	0.368	to_board	poldrack-single-stim	s251	False
236.93	1.0	2.408	236.929	0	PA_without_intermediate	test	ward_and_allport	-1	15.0	n/a	feedback	poldrack-single-stim	s251	False
239.342	4.163	4.163	243.505	1	PA_with_intermediate	test	ward_and_allport	82	16.0	4.163	to_hand	poldrack-single-stim	s251	False
243.506	0.1	0.367	243.873	0	PA_with_intermediate	test	ward_and_allport	71	16.0	0.367	to_board	poldrack-single-stim	s251	False
243.877	0.1	0.374	244.251	0	PA_with_intermediate	test	ward_and_allport	82	16.0	0.374	to_hand	poldrack-single-stim	s251	False
244.253	0.1	0.459	244.712	0	PA_with_intermediate	test	ward_and_allport	89	16.0	0.459	to_board	poldrack-single-stim	s251	False
244.717	0.1	0.352	245.069	0	PA_with_intermediate	test	ward_and_allport	71	16.0	0.352	to_hand	poldrack-single-stim	s251	False
245.069	0.1	0.298	245.367	0	PA_with_intermediate	test	ward_and_allport	89	16.0	0.298	to_board	poldrack-single-stim	s251	False
245.373	1.0	2.816	245.372	0	PA_with_intermediate	test	ward_and_allport	-1	16.0	n/a	feedback	poldrack-single-stim	s251	False
248.194	3.045	3.045	251.239	1	PA_without_intermediate	test	ward_and_allport	82	17.0	3.045	to_hand	poldrack-single-stim	s251	False
251.24	0.1	0.446	251.686	0	PA_without_intermediate	test	ward_and_allport	89	17.0	0.446	to_board	poldrack-single-stim	s251	False
251.69	0.1	2.674	254.364	0	PA_without_intermediate	test	ward_and_allport	82	17.0	2.674	to_hand	poldrack-single-stim	s251	False
254.366	0.1	0.674	255.04	0	PA_without_intermediate	test	ward_and_allport	71	17.0	0.674	to_board	poldrack-single-stim	s251	False
255.044	0.1	0.325	255.369	0	PA_without_intermediate	test	ward_and_allport	82	17.0	0.325	to_hand	poldrack-single-stim	s251	False
255.371	0.1	0.309	255.68	0	PA_without_intermediate	test	ward_and_allport	89	17.0	0.309	to_board	poldrack-single-stim	s251	False
255.686	1.0	3.088	255.685	0	PA_without_intermediate	test	ward_and_allport	-1	17.0	n/a	feedback	poldrack-single-stim	s251	False
258.781	2.547	2.547	261.328	1	PA_without_intermediate	test	ward_and_allport	71	18.0	2.547	to_hand	poldrack-single-stim	s251	False
261.328	0.1	0.354	261.682	0	PA_without_intermediate	test	ward_and_allport	82	18.0	0.354	to_board	poldrack-single-stim	s251	False
261.687	0.1	1.514	263.201	0	PA_without_intermediate	test	ward_and_allport	71	18.0	1.514	to_hand	poldrack-single-stim	s251	False
263.202	0.1	0.303	263.505	0	PA_without_intermediate	test	ward_and_allport	82	18.0	0.303	to_board	poldrack-single-stim	s251	False
263.51	0.1	1.104	264.614	0	PA_without_intermediate	test	ward_and_allport	71	18.0	1.104	to_hand	poldrack-single-stim	s251	False
264.615	0.1	0.304	264.919	0	PA_without_intermediate	test	ward_and_allport	89	18.0	0.304	to_board	poldrack-single-stim	s251	False
264.925	1.0	2.136	264.924	0	PA_without_intermediate	test	ward_and_allport	-1	18.0	n/a	feedback	poldrack-single-stim	s251	False
267.067	3.855	3.855	270.922	1	PA_without_intermediate	test	ward_and_allport	89	19.0	3.855	to_hand	poldrack-single-stim	s251	False
270.923	0.1	0.414	271.337	0	PA_without_intermediate	test	ward_and_allport	71	19.0	0.414	to_board	poldrack-single-stim	s251	False
271.342	0.1	0.681	272.023	0	PA_without_intermediate	test	ward_and_allport	89	19.0	0.681	to_hand	poldrack-single-stim	s251	False
272.024	0.1	0.443	272.467	0	PA_without_intermediate	test	ward_and_allport	82	19.0	0.443	to_board	poldrack-single-stim	s251	False
272.472	0.1	0.5	272.972	0	PA_without_intermediate	test	ward_and_allport	89	19.0	0.5	to_hand	poldrack-single-stim	s251	False
272.972	0.1	0.355	273.327	0	PA_without_intermediate	test	ward_and_allport	71	19.0	0.355	to_board	poldrack-single-stim	s251	False
273.333	1.0	7.168	273.332	0	PA_without_intermediate	test	ward_and_allport	-1	19.0	n/a	feedback	poldrack-single-stim	s251	False
280.506	2.554	2.554	283.06	1	PA_without_intermediate	test	ward_and_allport	71	20.0	2.554	to_hand	poldrack-single-stim	s251	False
283.061	0.1	0.326	283.387	0	PA_without_intermediate	test	ward_and_allport	89	20.0	0.326	to_board	poldrack-single-stim	s251	False
283.392	0.1	0.708	284.1	0	PA_without_intermediate	test	ward_and_allport	71	20.0	0.708	to_hand	poldrack-single-stim	s251	False
284.101	0.1	0.334	284.435	0	PA_without_intermediate	test	ward_and_allport	82	20.0	0.334	to_board	poldrack-single-stim	s251	False
284.441	0.1	0.414	284.855	0	PA_without_intermediate	test	ward_and_allport	71	20.0	0.414	to_hand	poldrack-single-stim	s251	False
284.856	0.1	0.399	285.255	0	PA_without_intermediate	test	ward_and_allport	89	20.0	0.399	to_board	poldrack-single-stim	s251	False
285.262	1.0	2.816	285.261	0	PA_without_intermediate	test	ward_and_allport	-1	20.0	n/a	feedback	poldrack-single-stim	s251	False
288.083	4.755	4.755	292.838	1	PA_with_intermediate	test	ward_and_allport	82	21.0	4.755	to_hand	poldrack-single-stim	s251	False
292.838	0.1	0.365	293.203	0	PA_with_intermediate	test	ward_and_allport	89	21.0	0.365	to_board	poldrack-single-stim	s251	False
293.208	0.1	1.056	294.264	0	PA_with_intermediate	test	ward_and_allport	82	21.0	1.056	to_hand	poldrack-single-stim	s251	False
294.265	0.1	0.556	294.821	0	PA_with_intermediate	test	ward_and_allport	71	21.0	0.556	to_board	poldrack-single-stim	s251	False
294.825	0.1	0.313	295.138	0	PA_with_intermediate	test	ward_and_allport	89	21.0	0.313	to_hand	poldrack-single-stim	s251	False
295.14	0.1	0.311	295.451	0	PA_with_intermediate	test	ward_and_allport	71	21.0	0.311	to_board	poldrack-single-stim	s251	False
295.456	1.0	2.952	295.455	0	PA_with_intermediate	test	ward_and_allport	-1	21.0	n/a	feedback	poldrack-single-stim	s251	False
298.414	6.711	6.711	305.125	1	PA_with_intermediate	test	ward_and_allport	82	22.0	6.711	to_hand	poldrack-single-stim	s251	False
305.127	0.1	0.687	305.814	0	PA_with_intermediate	test	ward_and_allport	71	22.0	0.687	to_board	poldrack-single-stim	s251	False
305.818	0.1	0.403	306.221	0	PA_with_intermediate	test	ward_and_allport	82	22.0	0.403	to_hand	poldrack-single-stim	s251	False
306.222	0.1	0.496	306.718	0	PA_with_intermediate	test	ward_and_allport	89	22.0	0.496	to_board	poldrack-single-stim	s251	False
306.724	0.1	1.757	308.481	0	PA_with_intermediate	test	ward_and_allport	71	22.0	1.757	to_hand	poldrack-single-stim	s251	False
308.482	0.1	0.407	308.889	0	PA_with_intermediate	test	ward_and_allport	82	22.0	0.407	to_board	poldrack-single-stim	s251	False
308.896	1.0	2.136	308.895	0	PA_with_intermediate	test	ward_and_allport	-1	22.0	n/a	feedback	poldrack-single-stim	s251	False
311.038	3.904	3.904	314.942	1	PA_without_intermediate	test	ward_and_allport	71	23.0	3.904	to_hand	poldrack-single-stim	s251	False
314.942	0.1	0.36	315.302	0	PA_without_intermediate	test	ward_and_allport	82	23.0	0.36	to_board	poldrack-single-stim	s251	False
315.309	0.1	2.685	317.994	0	PA_without_intermediate	test	ward_and_allport	71	23.0	2.685	to_hand	poldrack-single-stim	s251	False
317.995	0.1	0.342	318.337	0	PA_without_intermediate	test	ward_and_allport	82	23.0	0.342	to_board	poldrack-single-stim	s251	False
318.342	0.1	0.706	319.048	0	PA_without_intermediate	test	ward_and_allport	71	23.0	0.706	to_hand	poldrack-single-stim	s251	False
319.049	0.1	0.335	319.384	0	PA_without_intermediate	test	ward_and_allport	89	23.0	0.335	to_board	poldrack-single-stim	s251	False
319.392	1.0	2.68	319.391	0	PA_without_intermediate	test	ward_and_allport	-1	23.0	n/a	feedback	poldrack-single-stim	s251	False
322.079	4.887	4.887	326.966	1	PA_without_intermediate	test	ward_and_allport	89	24.0	4.887	to_hand	poldrack-single-stim	s251	False
326.966	0.1	0.578	327.544	0	PA_without_intermediate	test	ward_and_allport	82	24.0	0.578	to_board	poldrack-single-stim	s251	False
327.551	0.1	0.758	328.309	0	PA_without_intermediate	test	ward_and_allport	89	24.0	0.758	to_hand	poldrack-single-stim	s251	False
328.31	0.1	0.656	328.966	0	PA_without_intermediate	test	ward_and_allport	82	24.0	0.656	to_board	poldrack-single-stim	s251	False
328.972	0.1	0.603	329.575	0	PA_without_intermediate	test	ward_and_allport	89	24.0	0.603	to_hand	poldrack-single-stim	s251	False
329.576	0.1	0.366	329.942	0	PA_without_intermediate	test	ward_and_allport	71	24.0	0.366	to_board	poldrack-single-stim	s251	False
329.95	1.0	3.088	329.949	0	PA_without_intermediate	test	ward_and_allport	-1	24.0	n/a	feedback	poldrack-single-stim	s251	False
333.045	4.339	4.339	337.384	1	PA_with_intermediate	test	ward_and_allport	89	25.0	4.339	to_hand	poldrack-single-stim	s251	False
337.385	0.1	0.44	337.825	0	PA_with_intermediate	test	ward_and_allport	71	25.0	0.44	to_board	poldrack-single-stim	s251	False
337.831	0.1	0.393	338.224	0	PA_with_intermediate	test	ward_and_allport	89	25.0	0.393	to_hand	poldrack-single-stim	s251	False
338.225	0.1	0.677	338.902	0	PA_with_intermediate	test	ward_and_allport	82	25.0	0.677	to_board	poldrack-single-stim	s251	False
338.908	0.1	0.75	339.658	0	PA_with_intermediate	test	ward_and_allport	71	25.0	0.75	to_hand	poldrack-single-stim	s251	False
339.659	0.1	0.39	340.049	0	PA_with_intermediate	test	ward_and_allport	82	25.0	0.39	to_board	poldrack-single-stim	s251	False
340.057	1.0	2.0	340.056	0	PA_with_intermediate	test	ward_and_allport	-1	25.0	n/a	feedback	poldrack-single-stim	s251	False
342.064	3.628	3.628	345.692	1	PA_without_intermediate	test	ward_and_allport	82	26.0	3.628	to_hand	poldrack-single-stim	s251	False
345.693	0.1	0.906	346.599	0	PA_without_intermediate	test	ward_and_allport	89	26.0	0.906	to_board	poldrack-single-stim	s251	False
346.607	0.1	1.037	347.644	0	PA_without_intermediate	test	ward_and_allport	82	26.0	1.037	to_hand	poldrack-single-stim	s251	False
347.645	0.1	0.651	348.296	0	PA_without_intermediate	test	ward_and_allport	71	26.0	0.651	to_board	poldrack-single-stim	s251	False
348.302	0.1	0.39	348.692	0	PA_without_intermediate	test	ward_and_allport	82	26.0	0.39	to_hand	poldrack-single-stim	s251	False
348.694	0.1	0.42	349.114	0	PA_without_intermediate	test	ward_and_allport	89	26.0	0.42	to_board	poldrack-single-stim	s251	False
349.122	1.0	2.0	349.121	0	PA_without_intermediate	test	ward_and_allport	-1	26.0	n/a	feedback	poldrack-single-stim	s251	False
351.13	2.574	2.574	353.704	1	PA_without_intermediate	test	ward_and_allport	82	27.0	2.574	to_hand	poldrack-single-stim	s251	False
353.705	0.1	0.373	354.078	0	PA_without_intermediate	test	ward_and_allport	71	27.0	0.373	to_board	poldrack-single-stim	s251	False
354.085	0.1	0.47	354.555	0	PA_without_intermediate	test	ward_and_allport	82	27.0	0.47	to_hand	poldrack-single-stim	s251	False
354.555	0.1	0.378	354.933	0	PA_without_intermediate	test	ward_and_allport	89	27.0	0.378	to_board	poldrack-single-stim	s251	False
354.94	0.1	0.808	355.748	0	PA_without_intermediate	test	ward_and_allport	82	27.0	0.808	to_hand	poldrack-single-stim	s251	False
355.749	0.1	0.501	356.25	0	PA_without_intermediate	test	ward_and_allport	71	27.0	0.501	to_board	poldrack-single-stim	s251	False
356.258	1.0	2.0	356.257	0	PA_without_intermediate	test	ward_and_allport	-1	27.0	n/a	feedback	poldrack-single-stim	s251	False
358.264	3.692	3.692	361.956	1	PA_with_intermediate	test	ward_and_allport	71	28.0	3.692	to_hand	poldrack-single-stim	s251	False
361.957	0.1	0.32	362.277	0	PA_with_intermediate	test	ward_and_allport	89	28.0	0.32	to_board	poldrack-single-stim	s251	False
362.284	0.1	0.475	362.759	0	PA_with_intermediate	test	ward_and_allport	71	28.0	0.475	to_hand	poldrack-single-stim	s251	False
362.76	0.1	1.266	364.026	0	PA_with_intermediate	test	ward_and_allport	82	28.0	1.266	to_board	poldrack-single-stim	s251	False
364.032	0.1	0.662	364.694	0	PA_with_intermediate	test	ward_and_allport	89	28.0	0.662	to_hand	poldrack-single-stim	s251	False
364.695	0.1	0.671	365.366	0	PA_with_intermediate	test	ward_and_allport	82	28.0	0.671	to_board	poldrack-single-stim	s251	False
365.374	1.0	2.544	365.373	0	PA_with_intermediate	test	ward_and_allport	-1	28.0	n/a	feedback	poldrack-single-stim	s251	False
367.925	3.473	3.473	371.398	1	PA_without_intermediate	test	ward_and_allport	89	29.0	3.473	to_hand	poldrack-single-stim	s251	False
371.399	0.1	0.44	371.839	0	PA_without_intermediate	test	ward_and_allport	82	29.0	0.44	to_board	poldrack-single-stim	s251	False
371.846	0.1	1.007	372.853	0	PA_without_intermediate	test	ward_and_allport	89	29.0	1.007	to_hand	poldrack-single-stim	s251	False
372.854	0.1	0.507	373.361	0	PA_without_intermediate	test	ward_and_allport	82	29.0	0.507	to_board	poldrack-single-stim	s251	False
373.367	0.1	0.819	374.186	0	PA_without_intermediate	test	ward_and_allport	89	29.0	0.819	to_hand	poldrack-single-stim	s251	False
374.187	0.1	0.308	374.495	0	PA_without_intermediate	test	ward_and_allport	71	29.0	0.308	to_board	poldrack-single-stim	s251	False
374.504	1.0	2.272	374.503	0	PA_without_intermediate	test	ward_and_allport	-1	29.0	n/a	feedback	poldrack-single-stim	s251	False
381.787	4.348	4.348	386.135	1	PA_with_intermediate	test	ward_and_allport	71	30.0	4.348	to_hand	poldrack-single-stim	s251	False
386.135	0.1	0.388	386.523	0	PA_with_intermediate	test	ward_and_allport	82	30.0	0.388	to_board	poldrack-single-stim	s251	False
386.531	0.1	0.584	387.115	0	PA_with_intermediate	test	ward_and_allport	71	30.0	0.584	to_hand	poldrack-single-stim	s251	False
387.115	0.1	0.465	387.58	0	PA_with_intermediate	test	ward_and_allport	89	30.0	0.465	to_board	poldrack-single-stim	s251	False
387.587	0.1	0.661	388.248	0	PA_with_intermediate	test	ward_and_allport	82	30.0	0.661	to_hand	poldrack-single-stim	s251	False
388.249	0.1	0.285	388.534	0	PA_with_intermediate	test	ward_and_allport	71	30.0	0.285	to_board	poldrack-single-stim	s251	False
388.544	1.0	4.04	388.543	0	PA_with_intermediate	test	ward_and_allport	-1	30.0	n/a	feedback	poldrack-single-stim	s251	False
392.59	3.834	3.834	396.424	1	PA_with_intermediate	test	ward_and_allport	82	31.0	3.834	to_hand	poldrack-single-stim	s251	False
396.425	0.1	0.431	396.856	0	PA_with_intermediate	test	ward_and_allport	89	31.0	0.431	to_board	poldrack-single-stim	s251	False
396.863	0.1	0.453	397.316	0	PA_with_intermediate	test	ward_and_allport	82	31.0	0.453	to_hand	poldrack-single-stim	s251	False
397.317	0.1	0.415	397.732	0	PA_with_intermediate	test	ward_and_allport	71	31.0	0.415	to_board	poldrack-single-stim	s251	False
397.741	0.1	0.33	398.071	0	PA_with_intermediate	test	ward_and_allport	89	31.0	0.33	to_hand	poldrack-single-stim	s251	False
398.071	0.1	0.359	398.43	0	PA_with_intermediate	test	ward_and_allport	71	31.0	0.359	to_board	poldrack-single-stim	s251	False
398.44	1.0	2.272	398.439	0	PA_with_intermediate	test	ward_and_allport	-1	31.0	n/a	feedback	poldrack-single-stim	s251	False
400.721	3.71	3.71	404.431	1	PA_with_intermediate	test	ward_and_allport	89	32.0	3.71	to_hand	poldrack-single-stim	s251	False
404.432	0.1	0.423	404.855	0	PA_with_intermediate	test	ward_and_allport	82	32.0	0.423	to_board	poldrack-single-stim	s251	False
404.864	0.1	0.552	405.416	0	PA_with_intermediate	test	ward_and_allport	89	32.0	0.552	to_hand	poldrack-single-stim	s251	False
405.417	0.1	0.437	405.854	0	PA_with_intermediate	test	ward_and_allport	71	32.0	0.437	to_board	poldrack-single-stim	s251	False
405.86	0.1	0.401	406.261	0	PA_with_intermediate	test	ward_and_allport	82	32.0	0.401	to_hand	poldrack-single-stim	s251	False
406.263	0.1	0.324	406.587	0	PA_with_intermediate	test	ward_and_allport	71	32.0	0.324	to_board	poldrack-single-stim	s251	False
406.597	1.0	2.136	406.596	0	PA_with_intermediate	test	ward_and_allport	-1	32.0	n/a	feedback	poldrack-single-stim	s251	False
408.741	4.366	4.366	413.107	1	PA_with_intermediate	test	ward_and_allport	71	33.0	4.366	to_hand	poldrack-single-stim	s251	False
413.109	0.1	0.388	413.497	0	PA_with_intermediate	test	ward_and_allport	82	33.0	0.388	to_board	poldrack-single-stim	s251	False
413.502	0.1	0.521	414.023	0	PA_with_intermediate	test	ward_and_allport	71	33.0	0.521	to_hand	poldrack-single-stim	s251	False
414.025	0.1	0.32	414.345	0	PA_with_intermediate	test	ward_and_allport	89	33.0	0.32	to_board	poldrack-single-stim	s251	False
414.351	0.1	1.128	415.479	0	PA_with_intermediate	test	ward_and_allport	82	33.0	1.128	to_hand	poldrack-single-stim	s251	False
415.48	0.1	0.429	415.909	0	PA_with_intermediate	test	ward_and_allport	71	33.0	0.429	to_board	poldrack-single-stim	s251	False
415.92	1.0	2.0	415.919	0	PA_with_intermediate	test	ward_and_allport	-1	33.0	n/a	feedback	poldrack-single-stim	s251	False
417.929	5.655	5.655	423.584	1	PA_with_intermediate	test	ward_and_allport	89	34.0	5.655	to_hand	poldrack-single-stim	s251	False
423.586	0.1	0.394	423.98	0	PA_with_intermediate	test	ward_and_allport	82	34.0	0.394	to_board	poldrack-single-stim	s251	False
423.988	0.1	0.44	424.428	0	PA_with_intermediate	test	ward_and_allport	89	34.0	0.44	to_hand	poldrack-single-stim	s251	False
424.429	0.1	0.384	424.813	0	PA_with_intermediate	test	ward_and_allport	71	34.0	0.384	to_board	poldrack-single-stim	s251	False
424.821	0.1	0.406	425.227	0	PA_with_intermediate	test	ward_and_allport	82	34.0	0.406	to_hand	poldrack-single-stim	s251	False
425.228	0.1	0.474	425.702	0	PA_with_intermediate	test	ward_and_allport	89	34.0	0.474	to_board	poldrack-single-stim	s251	False
425.713	1.0	2.0	425.712	0	PA_with_intermediate	test	ward_and_allport	-1	34.0	n/a	feedback	poldrack-single-stim	s251	False
427.722	5.3	5.3	433.022	1	PA_without_intermediate	test	ward_and_allport	71	35.0	5.3	to_hand	poldrack-single-stim	s251	False
433.023	0.1	0.335	433.358	0	PA_without_intermediate	test	ward_and_allport	89	35.0	0.335	to_board	poldrack-single-stim	s251	False
433.367	0.1	0.543	433.91	0	PA_without_intermediate	test	ward_and_allport	71	35.0	0.543	to_hand	poldrack-single-stim	s251	False
433.91	0.1	0.364	434.274	0	PA_without_intermediate	test	ward_and_allport	82	35.0	0.364	to_board	poldrack-single-stim	s251	False
434.284	0.1	0.691	434.975	0	PA_without_intermediate	test	ward_and_allport	71	35.0	0.691	to_hand	poldrack-single-stim	s251	False
434.976	0.1	0.297	435.273	0	PA_without_intermediate	test	ward_and_allport	89	35.0	0.297	to_board	poldrack-single-stim	s251	False
435.282	1.0	2.408	435.281	0	PA_without_intermediate	test	ward_and_allport	-1	35.0	n/a	feedback	poldrack-single-stim	s251	False
437.7	4.796	4.796	442.496	1	PA_with_intermediate	test	ward_and_allport	71	36.0	4.796	to_hand	poldrack-single-stim	s251	False
442.498	0.1	0.328	442.826	0	PA_with_intermediate	test	ward_and_allport	89	36.0	0.328	to_board	poldrack-single-stim	s251	False
442.835	0.1	0.354	443.189	0	PA_with_intermediate	test	ward_and_allport	71	36.0	0.354	to_hand	poldrack-single-stim	s251	False
443.189	0.1	0.393	443.582	0	PA_with_intermediate	test	ward_and_allport	82	36.0	0.393	to_board	poldrack-single-stim	s251	False
443.592	0.1	0.754	444.346	0	PA_with_intermediate	test	ward_and_allport	89	36.0	0.754	to_hand	poldrack-single-stim	s251	False
444.346	0.1	0.274	444.62	0	PA_with_intermediate	test	ward_and_allport	71	36.0	0.274	to_board	poldrack-single-stim	s251	False
444.632	1.0	3.768	444.631	0	PA_with_intermediate	test	ward_and_allport	-1	36.0	n/a	feedback	poldrack-single-stim	s251	False
448.409	5.032	5.032	453.441	1	PA_with_intermediate	test	ward_and_allport	82	37.0	5.032	to_hand	poldrack-single-stim	s251	False
453.442	0.1	0.337	453.779	0	PA_with_intermediate	test	ward_and_allport	71	37.0	0.337	to_board	poldrack-single-stim	s251	False
453.787	0.1	0.366	454.153	0	PA_with_intermediate	test	ward_and_allport	82	37.0	0.366	to_hand	poldrack-single-stim	s251	False
454.154	0.1	0.318	454.472	0	PA_with_intermediate	test	ward_and_allport	89	37.0	0.318	to_board	poldrack-single-stim	s251	False
454.479	0.1	0.394	454.873	0	PA_with_intermediate	test	ward_and_allport	71	37.0	0.394	to_hand	poldrack-single-stim	s251	False
454.874	0.1	0.461	455.335	0	PA_with_intermediate	test	ward_and_allport	82	37.0	0.461	to_board	poldrack-single-stim	s251	False
455.344	1.0	2.68	455.343	0	PA_with_intermediate	test	ward_and_allport	-1	37.0	n/a	feedback	poldrack-single-stim	s251	False
458.035	2.59	2.59	460.625	1	PA_without_intermediate	test	ward_and_allport	71	38.0	2.59	to_hand	poldrack-single-stim	s251	False
460.625	0.1	0.394	461.019	0	PA_without_intermediate	test	ward_and_allport	82	38.0	0.394	to_board	poldrack-single-stim	s251	False
461.028	0.1	0.651	461.679	0	PA_without_intermediate	test	ward_and_allport	71	38.0	0.651	to_hand	poldrack-single-stim	s251	False
461.681	0.1	0.261	461.942	0	PA_without_intermediate	test	ward_and_allport	89	38.0	0.261	to_board	poldrack-single-stim	s251	False
461.95	0.1	0.398	462.348	0	PA_without_intermediate	test	ward_and_allport	71	38.0	0.398	to_hand	poldrack-single-stim	s251	False
462.349	0.1	0.319	462.668	0	PA_without_intermediate	test	ward_and_allport	82	38.0	0.319	to_board	poldrack-single-stim	s251	False
462.676	1.0	3.224	462.675	0	PA_without_intermediate	test	ward_and_allport	-1	38.0	n/a	feedback	poldrack-single-stim	s251	False
465.907	3.214	3.214	469.121	1	PA_without_intermediate	test	ward_and_allport	82	39.0	3.214	to_hand	poldrack-single-stim	s251	False
469.122	0.1	0.349	469.471	0	PA_without_intermediate	test	ward_and_allport	89	39.0	0.349	to_board	poldrack-single-stim	s251	False
469.478	0.1	0.555	470.033	0	PA_without_intermediate	test	ward_and_allport	82	39.0	0.555	to_hand	poldrack-single-stim	s251	False
470.034	0.1	0.412	470.446	0	PA_without_intermediate	test	ward_and_allport	89	39.0	0.412	to_board	poldrack-single-stim	s251	False
470.456	0.1	0.474	470.93	0	PA_without_intermediate	test	ward_and_allport	82	39.0	0.474	to_hand	poldrack-single-stim	s251	False
470.932	0.1	0.427	471.359	0	PA_without_intermediate	test	ward_and_allport	71	39.0	0.427	to_board	poldrack-single-stim	s251	False
471.37	1.0	3.36	471.369	0	PA_without_intermediate	test	ward_and_allport	-1	39.0	n/a	feedback	poldrack-single-stim	s251	False
474.738	3.926	3.926	478.664	1	PA_without_intermediate	test	ward_and_allport	89	40.0	3.926	to_hand	poldrack-single-stim	s251	False
478.665	0.1	0.314	478.979	0	PA_without_intermediate	test	ward_and_allport	71	40.0	0.314	to_board	poldrack-single-stim	s251	False
478.985	0.1	0.747	479.732	0	PA_without_intermediate	test	ward_and_allport	89	40.0	0.747	to_hand	poldrack-single-stim	s251	False
479.733	0.1	0.685	480.418	0	PA_without_intermediate	test	ward_and_allport	82	40.0	0.685	to_board	poldrack-single-stim	s251	False
480.427	0.1	0.472	480.899	0	PA_without_intermediate	test	ward_and_allport	89	40.0	0.472	to_hand	poldrack-single-stim	s251	False
480.9	0.1	0.342	481.242	0	PA_without_intermediate	test	ward_and_allport	71	40.0	0.342	to_board	poldrack-single-stim	s251	False
481.252	1.0	2.0	481.251	0	PA_without_intermediate	test	ward_and_allport	-1	40.0	n/a	feedback	poldrack-single-stim	s251	False
483.262	1.653	1.653	484.915	1	PA_without_intermediate	test	ward_and_allport	89	41.0	1.653	to_hand	poldrack-single-stim	s251	False
484.915	0.1	0.334	485.249	0	PA_without_intermediate	test	ward_and_allport	71	41.0	0.334	to_board	poldrack-single-stim	s251	False
485.259	0.1	0.452	485.711	0	PA_without_intermediate	test	ward_and_allport	89	41.0	0.452	to_hand	poldrack-single-stim	s251	False
485.713	0.1	0.431	486.144	0	PA_without_intermediate	test	ward_and_allport	71	41.0	0.431	to_board	poldrack-single-stim	s251	False
486.151	0.1	0.424	486.575	0	PA_without_intermediate	test	ward_and_allport	89	41.0	0.424	to_hand	poldrack-single-stim	s251	False
486.575	0.1	0.482	487.057	0	PA_without_intermediate	test	ward_and_allport	82	41.0	0.482	to_board	poldrack-single-stim	s251	False
487.066	1.0	2.408	487.065	0	PA_without_intermediate	test	ward_and_allport	-1	41.0	n/a	feedback	poldrack-single-stim	s251	False
489.481	3.792	3.792	493.273	1	PA_with_intermediate	test	ward_and_allport	89	42.0	3.792	to_hand	poldrack-single-stim	s251	False
493.275	0.1	0.387	493.662	0	PA_with_intermediate	test	ward_and_allport	82	42.0	0.387	to_board	poldrack-single-stim	s251	False
493.669	0.1	0.856	494.525	0	PA_with_intermediate	test	ward_and_allport	89	42.0	0.856	to_hand	poldrack-single-stim	s251	False
494.526	0.1	0.407	494.933	0	PA_with_intermediate	test	ward_and_allport	71	42.0	0.407	to_board	poldrack-single-stim	s251	False
494.942	0.1	0.552	495.494	0	PA_with_intermediate	test	ward_and_allport	82	42.0	0.552	to_hand	poldrack-single-stim	s251	False
495.495	0.1	0.58	496.075	0	PA_with_intermediate	test	ward_and_allport	89	42.0	0.58	to_board	poldrack-single-stim	s251	False
496.087	1.0	2.136	496.086	0	PA_with_intermediate	test	ward_and_allport	-1	42.0	n/a	feedback	poldrack-single-stim	s251	False
498.233	3.509	3.509	501.742	1	PA_without_intermediate	test	ward_and_allport	82	43.0	3.509	to_hand	poldrack-single-stim	s251	False
501.743	0.1	0.452	502.195	0	PA_without_intermediate	test	ward_and_allport	71	43.0	0.452	to_board	poldrack-single-stim	s251	False
502.203	0.1	0.506	502.709	0	PA_without_intermediate	test	ward_and_allport	82	43.0	0.506	to_hand	poldrack-single-stim	s251	False
502.711	0.1	0.48	503.191	0	PA_without_intermediate	test	ward_and_allport	71	43.0	0.48	to_board	poldrack-single-stim	s251	False
503.198	0.1	1.473	504.671	0	PA_without_intermediate	test	ward_and_allport	82	43.0	1.473	to_hand	poldrack-single-stim	s251	False
504.673	0.1	0.395	505.068	0	PA_without_intermediate	test	ward_and_allport	89	43.0	0.395	to_board	poldrack-single-stim	s251	False
505.079	1.0	5.128	505.078	0	PA_without_intermediate	test	ward_and_allport	-1	43.0	n/a	feedback	poldrack-single-stim	s251	False
510.217	2.45	2.45	512.667	1	PA_without_intermediate	test	ward_and_allport	89	44.0	2.45	to_hand	poldrack-single-stim	s251	False
512.669	0.1	0.317	512.986	0	PA_without_intermediate	test	ward_and_allport	71	44.0	0.317	to_board	poldrack-single-stim	s251	False
512.996	0.1	0.621	513.617	0	PA_without_intermediate	test	ward_and_allport	89	44.0	0.621	to_hand	poldrack-single-stim	s251	False
513.619	0.1	0.342	513.961	0	PA_without_intermediate	test	ward_and_allport	71	44.0	0.342	to_board	poldrack-single-stim	s251	False
513.97	0.1	0.357	514.327	0	PA_without_intermediate	test	ward_and_allport	89	44.0	0.357	to_hand	poldrack-single-stim	s251	False
514.328	0.1	0.382	514.71	0	PA_without_intermediate	test	ward_and_allport	82	44.0	0.382	to_board	poldrack-single-stim	s251	False
514.721	1.0	2.136	514.72	0	PA_without_intermediate	test	ward_and_allport	-1	44.0	n/a	feedback	poldrack-single-stim	s251	False
521.868	4.094	4.094	525.962	1	PA_without_intermediate	test	ward_and_allport	71	45.0	4.094	to_hand	poldrack-single-stim	s251	False
525.962	0.1	0.262	526.224	0	PA_without_intermediate	test	ward_and_allport	89	45.0	0.262	to_board	poldrack-single-stim	s251	False
526.233	0.1	0.348	526.581	0	PA_without_intermediate	test	ward_and_allport	71	45.0	0.348	to_hand	poldrack-single-stim	s251	False
526.582	0.1	0.474	527.056	0	PA_without_intermediate	test	ward_and_allport	89	45.0	0.474	to_board	poldrack-single-stim	s251	False
527.066	0.1	0.377	527.443	0	PA_without_intermediate	test	ward_and_allport	71	45.0	0.377	to_hand	poldrack-single-stim	s251	False
527.444	0.1	0.3	527.744	0	PA_without_intermediate	test	ward_and_allport	82	45.0	0.3	to_board	poldrack-single-stim	s251	False
527.758	1.0	5.264	527.757	0	PA_without_intermediate	test	ward_and_allport	-1	45.0	n/a	feedback	poldrack-single-stim	s251	False
533.035	3.835	3.835	536.87	1	PA_with_intermediate	test	ward_and_allport	71	46.0	3.835	to_hand	poldrack-single-stim	s251	False
536.87	0.1	0.284	537.154	0	PA_with_intermediate	test	ward_and_allport	82	46.0	0.284	to_board	poldrack-single-stim	s251	False
537.165	0.1	0.316	537.481	0	PA_with_intermediate	test	ward_and_allport	71	46.0	0.316	to_hand	poldrack-single-stim	s251	False
537.482	0.1	0.306	537.788	0	PA_with_intermediate	test	ward_and_allport	89	46.0	0.306	to_board	poldrack-single-stim	s251	False
537.798	0.1	0.69	538.488	0	PA_with_intermediate	test	ward_and_allport	82	46.0	0.69	to_hand	poldrack-single-stim	s251	False
538.488	0.1	0.393	538.881	0	PA_with_intermediate	test	ward_and_allport	89	46.0	0.393	to_board	poldrack-single-stim	s251	False
538.894	1.0	4.04	538.893	0	PA_with_intermediate	test	ward_and_allport	-1	46.0	n/a	feedback	poldrack-single-stim	s251	False
542.944	3.324	3.324	546.268	1	PA_with_intermediate	test	ward_and_allport	71	47.0	3.324	to_hand	poldrack-single-stim	s251	False
546.269	0.1	0.264	546.533	0	PA_with_intermediate	test	ward_and_allport	89	47.0	0.264	to_board	poldrack-single-stim	s251	False
546.545	0.1	0.299	546.844	0	PA_with_intermediate	test	ward_and_allport	71	47.0	0.299	to_hand	poldrack-single-stim	s251	False
546.845	0.1	0.339	547.184	0	PA_with_intermediate	test	ward_and_allport	82	47.0	0.339	to_board	poldrack-single-stim	s251	False
547.195	0.1	0.489	547.684	0	PA_with_intermediate	test	ward_and_allport	89	47.0	0.489	to_hand	poldrack-single-stim	s251	False
547.685	0.1	0.495	548.18	0	PA_with_intermediate	test	ward_and_allport	82	47.0	0.495	to_board	poldrack-single-stim	s251	False
548.193	1.0	2.136	548.192	0	PA_with_intermediate	test	ward_and_allport	-1	47.0	n/a	feedback	poldrack-single-stim	s251	False
