onset	duration	block_duration	movement_onset	planning	condition	exp_stage	experiment_exp_id	key_press	problem_id	response_time	trial_id	trial_type	worker_id	junk
3.009	4.46	4.46	7.469	1	UA_with_intermediate	practice	ward_and_allport	71	0.0	4.46	to_hand	poldrack-single-stim	s639	False
7.471	0.1	0.724	8.195	0	UA_with_intermediate	practice	ward_and_allport	82	0.0	0.724	to_board	poldrack-single-stim	s639	False
8.198	0.1	0.512	8.71	0	UA_with_intermediate	practice	ward_and_allport	71	0.0	0.512	to_hand	poldrack-single-stim	s639	False
8.712	0.1	0.417	9.129	0	UA_with_intermediate	practice	ward_and_allport	89	0.0	0.417	to_board	poldrack-single-stim	s639	False
9.131	0.1	0.681	9.812	0	UA_with_intermediate	practice	ward_and_allport	82	0.0	0.681	to_hand	poldrack-single-stim	s639	False
9.813	0.1	0.535	10.348	0	UA_with_intermediate	practice	ward_and_allport	89	0.0	0.535	to_board	poldrack-single-stim	s639	False
10.353	1.0	2.5	10.352	0	UA_with_intermediate	practice	ward_and_allport	-1	0.0	n/a	feedback	poldrack-single-stim	s639	False
12.855	3.216	3.216	16.071	1	UA_with_intermediate	practice	ward_and_allport	89	1.0	3.216	to_hand	poldrack-single-stim	s639	False
16.073	0.1	0.926	16.999	0	UA_with_intermediate	practice	ward_and_allport	82	1.0	0.926	to_board	poldrack-single-stim	s639	False
17.0	0.1	0.401	17.401	0	UA_with_intermediate	practice	ward_and_allport	71	1.0	0.401	to_hand	poldrack-single-stim	s639	False
17.403	0.1	0.325	17.728	0	UA_with_intermediate	practice	ward_and_allport	89	1.0	0.325	to_board	poldrack-single-stim	s639	False
17.731	0.1	0.571	18.302	0	UA_with_intermediate	practice	ward_and_allport	82	1.0	0.571	to_hand	poldrack-single-stim	s639	False
18.304	0.1	0.439	18.743	0	UA_with_intermediate	practice	ward_and_allport	89	1.0	0.439	to_board	poldrack-single-stim	s639	False
18.746	1.0	2.1	18.745	0	UA_with_intermediate	practice	ward_and_allport	-1	1.0	n/a	feedback	poldrack-single-stim	s639	False
20.847	5.088	5.088	25.935	1	UA_without_intermediate	practice	ward_and_allport	82	2.0	5.088	to_hand	poldrack-single-stim	s639	False
25.937	0.1	1.017	26.954	0	UA_without_intermediate	practice	ward_and_allport	89	2.0	1.017	to_board	poldrack-single-stim	s639	False
26.955	0.1	0.819	27.774	0	UA_without_intermediate	practice	ward_and_allport	71	2.0	0.819	to_hand	poldrack-single-stim	s639	False
27.775	0.1	0.367	28.142	0	UA_without_intermediate	practice	ward_and_allport	89	2.0	0.367	to_board	poldrack-single-stim	s639	False
28.144	0.1	0.823	28.967	0	UA_without_intermediate	practice	ward_and_allport	71	2.0	0.823	to_hand	poldrack-single-stim	s639	False
28.969	0.1	0.357	29.326	0	UA_without_intermediate	practice	ward_and_allport	89	2.0	0.357	to_board	poldrack-single-stim	s639	False
29.329	1.0	2.2	29.328	0	UA_without_intermediate	practice	ward_and_allport	-1	2.0	n/a	feedback	poldrack-single-stim	s639	False
31.533	2.844	2.844	34.377	1	UA_without_intermediate	practice	ward_and_allport	71	3.0	2.844	to_hand	poldrack-single-stim	s639	False
34.378	0.1	0.256	34.634	0	UA_without_intermediate	practice	ward_and_allport	89	3.0	0.256	to_board	poldrack-single-stim	s639	False
34.636	0.1	1.386	36.022	0	UA_without_intermediate	practice	ward_and_allport	82	3.0	1.386	to_hand	poldrack-single-stim	s639	False
36.023	0.1	0.394	36.417	0	UA_without_intermediate	practice	ward_and_allport	89	3.0	0.394	to_board	poldrack-single-stim	s639	False
36.419	0.1	0.391	36.81	0	UA_without_intermediate	practice	ward_and_allport	71	3.0	0.391	to_hand	poldrack-single-stim	s639	False
36.811	0.1	0.309	37.12	0	UA_without_intermediate	practice	ward_and_allport	89	3.0	0.309	to_board	poldrack-single-stim	s639	False
37.123	1.0	2.0	37.122	0	UA_without_intermediate	practice	ward_and_allport	-1	3.0	n/a	feedback	poldrack-single-stim	s639	False
41.129	3.669	3.669	44.798	1	PA_with_intermediate	test	ward_and_allport	71	0.0	3.669	to_hand	poldrack-single-stim	s639	False
44.8	0.1	0.44	45.24	0	PA_with_intermediate	test	ward_and_allport	89	0.0	0.44	to_board	poldrack-single-stim	s639	False
45.242	0.1	0.422	45.664	0	PA_with_intermediate	test	ward_and_allport	71	0.0	0.422	to_hand	poldrack-single-stim	s639	False
45.666	0.1	0.419	46.085	0	PA_with_intermediate	test	ward_and_allport	82	0.0	0.419	to_board	poldrack-single-stim	s639	False
46.087	0.1	0.381	46.468	0	PA_with_intermediate	test	ward_and_allport	89	0.0	0.381	to_hand	poldrack-single-stim	s639	False
46.47	0.1	0.312	46.782	0	PA_with_intermediate	test	ward_and_allport	71	0.0	0.312	to_board	poldrack-single-stim	s639	False
46.785	1.0	2.408	46.784	0	PA_with_intermediate	test	ward_and_allport	-1	0.0	n/a	feedback	poldrack-single-stim	s639	False
49.196	6.929	6.929	56.125	1	PA_without_intermediate	test	ward_and_allport	71	1.0	6.929	to_hand	poldrack-single-stim	s639	False
56.126	0.1	0.329	56.455	0	PA_without_intermediate	test	ward_and_allport	89	1.0	0.329	to_board	poldrack-single-stim	s639	False
56.456	0.1	0.374	56.83	0	PA_without_intermediate	test	ward_and_allport	71	1.0	0.374	to_hand	poldrack-single-stim	s639	False
56.832	0.1	0.417	57.249	0	PA_without_intermediate	test	ward_and_allport	82	1.0	0.417	to_board	poldrack-single-stim	s639	False
57.251	0.1	0.392	57.643	0	PA_without_intermediate	test	ward_and_allport	71	1.0	0.392	to_hand	poldrack-single-stim	s639	False
57.644	0.1	0.348	57.992	0	PA_without_intermediate	test	ward_and_allport	89	1.0	0.348	to_board	poldrack-single-stim	s639	False
57.996	1.0	2.68	57.995	0	PA_without_intermediate	test	ward_and_allport	-1	1.0	n/a	feedback	poldrack-single-stim	s639	False
60.68	2.252	2.252	62.932	1	PA_with_intermediate	test	ward_and_allport	71	2.0	2.252	to_hand	poldrack-single-stim	s639	False
62.933	0.1	0.31	63.243	0	PA_with_intermediate	test	ward_and_allport	82	2.0	0.31	to_board	poldrack-single-stim	s639	False
63.245	0.1	0.377	63.622	0	PA_with_intermediate	test	ward_and_allport	71	2.0	0.377	to_hand	poldrack-single-stim	s639	False
63.623	0.1	0.304	63.927	0	PA_with_intermediate	test	ward_and_allport	89	2.0	0.304	to_board	poldrack-single-stim	s639	False
63.929	0.1	0.79	64.719	0	PA_with_intermediate	test	ward_and_allport	82	2.0	0.79	to_hand	poldrack-single-stim	s639	False
64.72	0.1	0.72	65.44	0	PA_with_intermediate	test	ward_and_allport	89	2.0	0.72	to_board	poldrack-single-stim	s639	False
65.444	1.0	4.72	65.443	0	PA_with_intermediate	test	ward_and_allport	-1	2.0	n/a	feedback	poldrack-single-stim	s639	False
70.167	4.213	4.213	74.38	1	PA_without_intermediate	test	ward_and_allport	82	3.0	4.213	to_hand	poldrack-single-stim	s639	False
74.382	0.1	0.433	74.815	0	PA_without_intermediate	test	ward_and_allport	71	3.0	0.433	to_board	poldrack-single-stim	s639	False
74.817	0.1	0.524	75.341	0	PA_without_intermediate	test	ward_and_allport	82	3.0	0.524	to_hand	poldrack-single-stim	s639	False
75.342	0.1	0.629	75.971	0	PA_without_intermediate	test	ward_and_allport	89	3.0	0.629	to_board	poldrack-single-stim	s639	False
75.974	0.1	0.824	76.798	0	PA_without_intermediate	test	ward_and_allport	82	3.0	0.824	to_hand	poldrack-single-stim	s639	False
76.8	0.1	0.392	77.192	0	PA_without_intermediate	test	ward_and_allport	71	3.0	0.392	to_board	poldrack-single-stim	s639	False
77.196	1.0	3.224	77.195	0	PA_without_intermediate	test	ward_and_allport	-1	3.0	n/a	feedback	poldrack-single-stim	s639	False
80.423	2.972	2.972	83.395	1	PA_without_intermediate	test	ward_and_allport	71	4.0	2.972	to_hand	poldrack-single-stim	s639	False
83.397	0.1	0.522	83.919	0	PA_without_intermediate	test	ward_and_allport	82	4.0	0.522	to_board	poldrack-single-stim	s639	False
83.921	0.1	0.355	84.276	0	PA_without_intermediate	test	ward_and_allport	71	4.0	0.355	to_hand	poldrack-single-stim	s639	False
84.277	0.1	0.307	84.584	0	PA_without_intermediate	test	ward_and_allport	82	4.0	0.307	to_board	poldrack-single-stim	s639	False
84.587	0.1	0.327	84.914	0	PA_without_intermediate	test	ward_and_allport	71	4.0	0.327	to_hand	poldrack-single-stim	s639	False
84.916	0.1	0.466	85.382	0	PA_without_intermediate	test	ward_and_allport	89	4.0	0.466	to_board	poldrack-single-stim	s639	False
85.386	1.0	2.272	85.385	0	PA_without_intermediate	test	ward_and_allport	-1	4.0	n/a	feedback	poldrack-single-stim	s639	False
87.662	3.575	3.575	91.237	1	PA_with_intermediate	test	ward_and_allport	71	5.0	3.575	to_hand	poldrack-single-stim	s639	False
91.238	0.1	0.448	91.686	0	PA_with_intermediate	test	ward_and_allport	82	5.0	0.448	to_board	poldrack-single-stim	s639	False
91.689	0.1	0.36	92.049	0	PA_with_intermediate	test	ward_and_allport	71	5.0	0.36	to_hand	poldrack-single-stim	s639	False
92.051	0.1	0.307	92.358	0	PA_with_intermediate	test	ward_and_allport	89	5.0	0.307	to_board	poldrack-single-stim	s639	False
92.361	0.1	0.491	92.852	0	PA_with_intermediate	test	ward_and_allport	82	5.0	0.491	to_hand	poldrack-single-stim	s639	False
92.854	0.1	0.333	93.187	0	PA_with_intermediate	test	ward_and_allport	71	5.0	0.333	to_board	poldrack-single-stim	s639	False
93.191	1.0	3.632	93.19	0	PA_with_intermediate	test	ward_and_allport	-1	5.0	n/a	feedback	poldrack-single-stim	s639	False
96.827	3.687	3.687	100.514	1	PA_without_intermediate	test	ward_and_allport	89	6.0	3.687	to_hand	poldrack-single-stim	s639	False
100.515	0.1	0.425	100.94	0	PA_without_intermediate	test	ward_and_allport	82	6.0	0.425	to_board	poldrack-single-stim	s639	False
100.944	0.1	1.456	102.4	0	PA_without_intermediate	test	ward_and_allport	89	6.0	1.456	to_hand	poldrack-single-stim	s639	False
102.401	0.1	0.541	102.942	0	PA_without_intermediate	test	ward_and_allport	71	6.0	0.541	to_board	poldrack-single-stim	s639	False
102.945	0.1	0.494	103.439	0	PA_without_intermediate	test	ward_and_allport	89	6.0	0.494	to_hand	poldrack-single-stim	s639	False
103.441	0.1	0.547	103.988	0	PA_without_intermediate	test	ward_and_allport	82	6.0	0.547	to_board	poldrack-single-stim	s639	False
103.994	1.0	2.408	103.993	0	PA_without_intermediate	test	ward_and_allport	-1	6.0	n/a	feedback	poldrack-single-stim	s639	False
106.405	4.383	4.383	110.788	1	PA_without_intermediate	test	ward_and_allport	82	7.0	4.383	to_hand	poldrack-single-stim	s639	False
110.789	0.1	0.405	111.194	0	PA_without_intermediate	test	ward_and_allport	71	7.0	0.405	to_board	poldrack-single-stim	s639	False
111.198	0.1	0.352	111.55	0	PA_without_intermediate	test	ward_and_allport	82	7.0	0.352	to_hand	poldrack-single-stim	s639	False
111.551	0.1	0.569	112.12	0	PA_without_intermediate	test	ward_and_allport	71	7.0	0.569	to_board	poldrack-single-stim	s639	False
112.123	0.1	0.537	112.66	0	PA_without_intermediate	test	ward_and_allport	82	7.0	0.537	to_hand	poldrack-single-stim	s639	False
112.662	0.1	0.51	113.172	0	PA_without_intermediate	test	ward_and_allport	89	7.0	0.51	to_board	poldrack-single-stim	s639	False
113.175	1.0	2.0	113.174	0	PA_without_intermediate	test	ward_and_allport	-1	7.0	n/a	feedback	poldrack-single-stim	s639	False
115.178	2.377	2.377	117.555	1	PA_with_intermediate	test	ward_and_allport	82	8.0	2.377	to_hand	poldrack-single-stim	s639	False
117.557	0.1	0.493	118.05	0	PA_with_intermediate	test	ward_and_allport	71	8.0	0.493	to_board	poldrack-single-stim	s639	False
118.054	0.1	0.45	118.504	0	PA_with_intermediate	test	ward_and_allport	82	8.0	0.45	to_hand	poldrack-single-stim	s639	False
118.505	0.1	0.439	118.944	0	PA_with_intermediate	test	ward_and_allport	89	8.0	0.439	to_board	poldrack-single-stim	s639	False
118.947	0.1	1.038	119.985	0	PA_with_intermediate	test	ward_and_allport	71	8.0	1.038	to_hand	poldrack-single-stim	s639	False
119.986	0.1	0.391	120.377	0	PA_with_intermediate	test	ward_and_allport	82	8.0	0.391	to_board	poldrack-single-stim	s639	False
120.383	1.0	2.0	120.382	0	PA_with_intermediate	test	ward_and_allport	-1	8.0	n/a	feedback	poldrack-single-stim	s639	False
122.388	5.478	5.478	127.866	1	PA_with_intermediate	test	ward_and_allport	89	9.0	5.478	to_hand	poldrack-single-stim	s639	False
127.866	0.1	0.406	128.272	0	PA_with_intermediate	test	ward_and_allport	71	9.0	0.406	to_board	poldrack-single-stim	s639	False
128.276	0.1	0.629	128.905	0	PA_with_intermediate	test	ward_and_allport	89	9.0	0.629	to_hand	poldrack-single-stim	s639	False
128.907	0.1	0.657	129.564	0	PA_with_intermediate	test	ward_and_allport	82	9.0	0.657	to_board	poldrack-single-stim	s639	False
129.569	0.1	0.384	129.953	0	PA_with_intermediate	test	ward_and_allport	71	9.0	0.384	to_hand	poldrack-single-stim	s639	False
129.954	0.1	0.425	130.379	0	PA_with_intermediate	test	ward_and_allport	82	9.0	0.425	to_board	poldrack-single-stim	s639	False
130.384	1.0	2.0	130.383	0	PA_with_intermediate	test	ward_and_allport	-1	9.0	n/a	feedback	poldrack-single-stim	s639	False
132.389	5.034	5.034	137.423	1	PA_with_intermediate	test	ward_and_allport	82	10.0	5.034	to_hand	poldrack-single-stim	s639	False
137.424	0.1	0.395	137.819	0	PA_with_intermediate	test	ward_and_allport	89	10.0	0.395	to_board	poldrack-single-stim	s639	False
137.824	0.1	0.711	138.535	0	PA_with_intermediate	test	ward_and_allport	82	10.0	0.711	to_hand	poldrack-single-stim	s639	False
138.537	0.1	0.552	139.089	0	PA_with_intermediate	test	ward_and_allport	71	10.0	0.552	to_board	poldrack-single-stim	s639	False
139.094	0.1	0.497	139.591	0	PA_with_intermediate	test	ward_and_allport	89	10.0	0.497	to_hand	poldrack-single-stim	s639	False
139.592	0.1	0.494	140.086	0	PA_with_intermediate	test	ward_and_allport	82	10.0	0.494	to_board	poldrack-single-stim	s639	False
140.092	1.0	2.408	140.091	0	PA_with_intermediate	test	ward_and_allport	-1	10.0	n/a	feedback	poldrack-single-stim	s639	False
142.505	5.397	5.397	147.902	1	PA_without_intermediate	test	ward_and_allport	89	11.0	5.397	to_hand	poldrack-single-stim	s639	False
147.903	0.1	0.636	148.539	0	PA_without_intermediate	test	ward_and_allport	71	11.0	0.636	to_board	poldrack-single-stim	s639	False
148.543	0.1	0.423	148.966	0	PA_without_intermediate	test	ward_and_allport	89	11.0	0.423	to_hand	poldrack-single-stim	s639	False
148.967	0.1	0.523	149.49	0	PA_without_intermediate	test	ward_and_allport	82	11.0	0.523	to_board	poldrack-single-stim	s639	False
149.493	0.1	0.575	150.068	0	PA_without_intermediate	test	ward_and_allport	89	11.0	0.575	to_hand	poldrack-single-stim	s639	False
150.07	0.1	0.479	150.549	0	PA_without_intermediate	test	ward_and_allport	71	11.0	0.479	to_board	poldrack-single-stim	s639	False
150.555	1.0	2.816	150.554	0	PA_without_intermediate	test	ward_and_allport	-1	11.0	n/a	feedback	poldrack-single-stim	s639	False
153.377	3.727	3.727	157.104	1	PA_with_intermediate	test	ward_and_allport	71	12.0	3.727	to_hand	poldrack-single-stim	s639	False
157.105	0.1	0.277	157.382	0	PA_with_intermediate	test	ward_and_allport	89	12.0	0.277	to_board	poldrack-single-stim	s639	False
157.387	0.1	0.417	157.804	0	PA_with_intermediate	test	ward_and_allport	71	12.0	0.417	to_hand	poldrack-single-stim	s639	False
157.806	0.1	0.391	158.197	0	PA_with_intermediate	test	ward_and_allport	82	12.0	0.391	to_board	poldrack-single-stim	s639	False
158.202	0.1	0.467	158.669	0	PA_with_intermediate	test	ward_and_allport	89	12.0	0.467	to_hand	poldrack-single-stim	s639	False
158.671	0.1	0.452	159.123	0	PA_with_intermediate	test	ward_and_allport	82	12.0	0.452	to_board	poldrack-single-stim	s639	False
159.128	1.0	4.176	159.127	0	PA_with_intermediate	test	ward_and_allport	-1	12.0	n/a	feedback	poldrack-single-stim	s639	False
163.309	4.212	4.212	167.521	1	PA_with_intermediate	test	ward_and_allport	71	13.0	4.212	to_hand	poldrack-single-stim	s639	False
167.523	0.1	0.313	167.836	0	PA_with_intermediate	test	ward_and_allport	89	13.0	0.313	to_board	poldrack-single-stim	s639	False
167.84	0.1	0.364	168.204	0	PA_with_intermediate	test	ward_and_allport	71	13.0	0.364	to_hand	poldrack-single-stim	s639	False
168.205	0.1	0.343	168.548	0	PA_with_intermediate	test	ward_and_allport	82	13.0	0.343	to_board	poldrack-single-stim	s639	False
168.552	0.1	0.497	169.049	0	PA_with_intermediate	test	ward_and_allport	89	13.0	0.497	to_hand	poldrack-single-stim	s639	False
169.05	0.1	0.321	169.371	0	PA_with_intermediate	test	ward_and_allport	71	13.0	0.321	to_board	poldrack-single-stim	s639	False
169.378	1.0	3.36	169.377	0	PA_with_intermediate	test	ward_and_allport	-1	13.0	n/a	feedback	poldrack-single-stim	s639	False
172.744	3.792	3.792	176.536	1	PA_with_intermediate	test	ward_and_allport	89	14.0	3.792	to_hand	poldrack-single-stim	s639	False
176.537	0.1	0.367	176.904	0	PA_with_intermediate	test	ward_and_allport	71	14.0	0.367	to_board	poldrack-single-stim	s639	False
176.909	0.1	0.351	177.26	0	PA_with_intermediate	test	ward_and_allport	89	14.0	0.351	to_hand	poldrack-single-stim	s639	False
177.261	0.1	0.584	177.845	0	PA_with_intermediate	test	ward_and_allport	82	14.0	0.584	to_board	poldrack-single-stim	s639	False
177.85	0.1	0.492	178.342	0	PA_with_intermediate	test	ward_and_allport	71	14.0	0.492	to_hand	poldrack-single-stim	s639	False
178.344	0.1	0.438	178.782	0	PA_with_intermediate	test	ward_and_allport	82	14.0	0.438	to_board	poldrack-single-stim	s639	False
178.788	1.0	2.0	178.787	0	PA_with_intermediate	test	ward_and_allport	-1	14.0	n/a	feedback	poldrack-single-stim	s639	False
185.796	3.95	3.95	189.746	1	PA_without_intermediate	test	ward_and_allport	71	15.0	3.95	to_hand	poldrack-single-stim	s639	False
189.746	0.1	0.557	190.303	0	PA_without_intermediate	test	ward_and_allport	82	15.0	0.557	to_board	poldrack-single-stim	s639	False
190.308	0.1	0.446	190.754	0	PA_without_intermediate	test	ward_and_allport	71	15.0	0.446	to_hand	poldrack-single-stim	s639	False
190.756	0.1	0.406	191.162	0	PA_without_intermediate	test	ward_and_allport	82	15.0	0.406	to_board	poldrack-single-stim	s639	False
191.167	0.1	0.442	191.609	0	PA_without_intermediate	test	ward_and_allport	71	15.0	0.442	to_hand	poldrack-single-stim	s639	False
191.61	0.1	0.352	191.962	0	PA_without_intermediate	test	ward_and_allport	89	15.0	0.352	to_board	poldrack-single-stim	s639	False
191.968	1.0	2.408	191.967	0	PA_without_intermediate	test	ward_and_allport	-1	15.0	n/a	feedback	poldrack-single-stim	s639	False
194.382	3.484	3.484	197.866	1	PA_with_intermediate	test	ward_and_allport	82	16.0	3.484	to_hand	poldrack-single-stim	s639	False
197.867	0.1	0.364	198.231	0	PA_with_intermediate	test	ward_and_allport	71	16.0	0.364	to_board	poldrack-single-stim	s639	False
198.236	0.1	0.464	198.7	0	PA_with_intermediate	test	ward_and_allport	82	16.0	0.464	to_hand	poldrack-single-stim	s639	False
198.701	0.1	0.407	199.108	0	PA_with_intermediate	test	ward_and_allport	89	16.0	0.407	to_board	poldrack-single-stim	s639	False
199.112	0.1	0.477	199.589	0	PA_with_intermediate	test	ward_and_allport	71	16.0	0.477	to_hand	poldrack-single-stim	s639	False
199.591	0.1	0.579	200.17	0	PA_with_intermediate	test	ward_and_allport	89	16.0	0.579	to_board	poldrack-single-stim	s639	False
200.176	1.0	2.816	200.175	0	PA_with_intermediate	test	ward_and_allport	-1	16.0	n/a	feedback	poldrack-single-stim	s639	False
202.997	3.407	3.407	206.404	1	PA_without_intermediate	test	ward_and_allport	82	17.0	3.407	to_hand	poldrack-single-stim	s639	False
206.406	0.1	0.36	206.766	0	PA_without_intermediate	test	ward_and_allport	89	17.0	0.36	to_board	poldrack-single-stim	s639	False
206.771	0.1	0.713	207.484	0	PA_without_intermediate	test	ward_and_allport	82	17.0	0.713	to_hand	poldrack-single-stim	s639	False
207.485	0.1	0.431	207.916	0	PA_without_intermediate	test	ward_and_allport	71	17.0	0.431	to_board	poldrack-single-stim	s639	False
207.92	0.1	0.386	208.306	0	PA_without_intermediate	test	ward_and_allport	82	17.0	0.386	to_hand	poldrack-single-stim	s639	False
208.307	0.1	0.376	208.683	0	PA_without_intermediate	test	ward_and_allport	89	17.0	0.376	to_board	poldrack-single-stim	s639	False
208.69	1.0	3.088	208.689	0	PA_without_intermediate	test	ward_and_allport	-1	17.0	n/a	feedback	poldrack-single-stim	s639	False
211.784	1.728	1.728	213.512	1	PA_without_intermediate	test	ward_and_allport	71	18.0	1.728	to_hand	poldrack-single-stim	s639	False
213.514	0.1	0.34	213.854	0	PA_without_intermediate	test	ward_and_allport	82	18.0	0.34	to_board	poldrack-single-stim	s639	False
213.859	0.1	0.44	214.299	0	PA_without_intermediate	test	ward_and_allport	71	18.0	0.44	to_hand	poldrack-single-stim	s639	False
214.299	0.1	0.317	214.616	0	PA_without_intermediate	test	ward_and_allport	89	18.0	0.317	to_board	poldrack-single-stim	s639	False
214.621	0.1	0.406	215.027	0	PA_without_intermediate	test	ward_and_allport	71	18.0	0.406	to_hand	poldrack-single-stim	s639	False
215.029	0.1	0.416	215.445	0	PA_without_intermediate	test	ward_and_allport	82	18.0	0.416	to_board	poldrack-single-stim	s639	False
215.452	1.0	2.136	215.451	0	PA_without_intermediate	test	ward_and_allport	-1	18.0	n/a	feedback	poldrack-single-stim	s639	False
217.594	3.142	3.142	220.736	1	PA_without_intermediate	test	ward_and_allport	89	19.0	3.142	to_hand	poldrack-single-stim	s639	False
220.738	0.1	0.472	221.21	0	PA_without_intermediate	test	ward_and_allport	82	19.0	0.472	to_board	poldrack-single-stim	s639	False
221.216	0.1	0.649	221.865	0	PA_without_intermediate	test	ward_and_allport	89	19.0	0.649	to_hand	poldrack-single-stim	s639	False
221.867	0.1	0.566	222.433	0	PA_without_intermediate	test	ward_and_allport	71	19.0	0.566	to_board	poldrack-single-stim	s639	False
222.439	0.1	0.398	222.837	0	PA_without_intermediate	test	ward_and_allport	89	19.0	0.398	to_hand	poldrack-single-stim	s639	False
222.838	0.1	0.37	223.208	0	PA_without_intermediate	test	ward_and_allport	82	19.0	0.37	to_board	poldrack-single-stim	s639	False
223.215	1.0	7.168	223.214	0	PA_without_intermediate	test	ward_and_allport	-1	19.0	n/a	feedback	poldrack-single-stim	s639	False
230.389	3.836	3.836	234.225	1	PA_without_intermediate	test	ward_and_allport	82	20.0	3.836	to_hand	poldrack-single-stim	s639	False
234.225	0.1	0.567	234.792	0	PA_without_intermediate	test	ward_and_allport	71	20.0	0.567	to_board	poldrack-single-stim	s639	False
234.796	0.1	0.893	235.689	0	PA_without_intermediate	test	ward_and_allport	82	20.0	0.893	to_hand	poldrack-single-stim	s639	False
235.691	0.1	0.52	236.211	0	PA_without_intermediate	test	ward_and_allport	71	20.0	0.52	to_board	poldrack-single-stim	s639	False
236.215	0.1	0.543	236.758	0	PA_without_intermediate	test	ward_and_allport	82	20.0	0.543	to_hand	poldrack-single-stim	s639	False
236.759	0.1	0.441	237.2	0	PA_without_intermediate	test	ward_and_allport	89	20.0	0.441	to_board	poldrack-single-stim	s639	False
237.207	1.0	2.816	237.206	0	PA_without_intermediate	test	ward_and_allport	-1	20.0	n/a	feedback	poldrack-single-stim	s639	False
240.029	4.095	4.095	244.124	1	PA_with_intermediate	test	ward_and_allport	89	21.0	4.095	to_hand	poldrack-single-stim	s639	False
244.125	0.1	0.5	244.625	0	PA_with_intermediate	test	ward_and_allport	82	21.0	0.5	to_board	poldrack-single-stim	s639	False
244.631	0.1	1.462	246.093	0	PA_with_intermediate	test	ward_and_allport	89	21.0	1.462	to_hand	poldrack-single-stim	s639	False
246.094	0.1	0.444	246.538	0	PA_with_intermediate	test	ward_and_allport	71	21.0	0.444	to_board	poldrack-single-stim	s639	False
246.545	0.1	0.947	247.492	0	PA_with_intermediate	test	ward_and_allport	82	21.0	0.947	to_hand	poldrack-single-stim	s639	False
247.493	0.1	0.426	247.919	0	PA_with_intermediate	test	ward_and_allport	71	21.0	0.426	to_board	poldrack-single-stim	s639	False
247.926	1.0	2.952	247.925	0	PA_with_intermediate	test	ward_and_allport	-1	21.0	n/a	feedback	poldrack-single-stim	s639	False
250.885	4.515	4.515	255.4	1	PA_with_intermediate	test	ward_and_allport	89	22.0	4.515	to_hand	poldrack-single-stim	s639	False
255.402	0.1	0.379	255.781	0	PA_with_intermediate	test	ward_and_allport	71	22.0	0.379	to_board	poldrack-single-stim	s639	False
255.787	0.1	0.428	256.215	0	PA_with_intermediate	test	ward_and_allport	89	22.0	0.428	to_hand	poldrack-single-stim	s639	False
256.216	0.1	0.433	256.649	0	PA_with_intermediate	test	ward_and_allport	82	22.0	0.433	to_board	poldrack-single-stim	s639	False
256.655	0.1	0.452	257.107	0	PA_with_intermediate	test	ward_and_allport	71	22.0	0.452	to_hand	poldrack-single-stim	s639	False
257.109	0.1	0.351	257.46	0	PA_with_intermediate	test	ward_and_allport	89	22.0	0.351	to_board	poldrack-single-stim	s639	False
257.468	1.0	2.136	257.467	0	PA_with_intermediate	test	ward_and_allport	-1	22.0	n/a	feedback	poldrack-single-stim	s639	False
259.611	3.178	3.178	262.789	1	PA_without_intermediate	test	ward_and_allport	82	23.0	3.178	to_hand	poldrack-single-stim	s639	False
262.79	0.1	1.038	263.828	0	PA_without_intermediate	test	ward_and_allport	89	23.0	1.038	to_board	poldrack-single-stim	s639	False
263.835	0.1	0.65	264.485	0	PA_without_intermediate	test	ward_and_allport	82	23.0	0.65	to_hand	poldrack-single-stim	s639	False
264.486	0.1	0.383	264.869	0	PA_without_intermediate	test	ward_and_allport	71	23.0	0.383	to_board	poldrack-single-stim	s639	False
264.876	0.1	0.518	265.394	0	PA_without_intermediate	test	ward_and_allport	89	23.0	0.518	to_hand	poldrack-single-stim	s639	False
265.395	0.1	2.289	267.684	0	PA_without_intermediate	test	ward_and_allport	71	23.0	2.289	to_board	poldrack-single-stim	s639	False
267.69	0.1	0.436	268.126	0	PA_without_intermediate	test	ward_and_allport	82	23.0	0.436	to_hand	poldrack-single-stim	s639	False
268.127	0.1	0.588	268.715	0	PA_without_intermediate	test	ward_and_allport	89	23.0	0.588	to_board	poldrack-single-stim	s639	False
268.721	0.1	0.572	269.293	0	PA_without_intermediate	test	ward_and_allport	71	23.0	0.572	to_hand	poldrack-single-stim	s639	False
269.293	0.1	0.274	269.567	0	PA_without_intermediate	test	ward_and_allport	89	23.0	0.274	to_board	poldrack-single-stim	s639	False
269.573	0.1	3.325	272.898	0	PA_without_intermediate	test	ward_and_allport	89	23.0	3.325	to_hand	poldrack-single-stim	s639	False
272.9	0.1	0.81	273.71	0	PA_without_intermediate	test	ward_and_allport	71	23.0	0.81	to_board	poldrack-single-stim	s639	False
273.716	0.1	0.711	274.427	0	PA_without_intermediate	test	ward_and_allport	89	23.0	0.711	to_hand	poldrack-single-stim	s639	False
274.429	0.1	0.467	274.896	0	PA_without_intermediate	test	ward_and_allport	82	23.0	0.467	to_board	poldrack-single-stim	s639	False
274.902	0.1	0.814	275.716	0	PA_without_intermediate	test	ward_and_allport	71	23.0	0.814	to_hand	poldrack-single-stim	s639	False
275.717	0.1	0.403	276.12	0	PA_without_intermediate	test	ward_and_allport	89	23.0	0.403	to_board	poldrack-single-stim	s639	False
276.126	0.1	0.559	276.685	0	PA_without_intermediate	test	ward_and_allport	82	23.0	0.559	to_hand	poldrack-single-stim	s639	False
276.686	0.1	0.414	277.1	0	PA_without_intermediate	test	ward_and_allport	89	23.0	0.414	to_board	poldrack-single-stim	s639	False
277.108	1.0	2.68	277.107	0	PA_without_intermediate	test	ward_and_allport	-1	23.0	n/a	feedback	poldrack-single-stim	s639	False
279.796	5.108	5.108	284.904	1	PA_without_intermediate	test	ward_and_allport	82	24.0	5.108	to_hand	poldrack-single-stim	s639	False
284.905	0.1	0.492	285.397	0	PA_without_intermediate	test	ward_and_allport	89	24.0	0.492	to_board	poldrack-single-stim	s639	False
285.404	0.1	0.579	285.983	0	PA_without_intermediate	test	ward_and_allport	82	24.0	0.579	to_hand	poldrack-single-stim	s639	False
285.985	0.1	0.46	286.445	0	PA_without_intermediate	test	ward_and_allport	89	24.0	0.46	to_board	poldrack-single-stim	s639	False
286.452	0.1	1.791	288.243	0	PA_without_intermediate	test	ward_and_allport	82	24.0	1.791	to_hand	poldrack-single-stim	s639	False
288.243	0.1	0.41	288.653	0	PA_without_intermediate	test	ward_and_allport	71	24.0	0.41	to_board	poldrack-single-stim	s639	False
288.662	1.0	3.088	288.661	0	PA_without_intermediate	test	ward_and_allport	-1	24.0	n/a	feedback	poldrack-single-stim	s639	False
291.758	9.476	9.476	301.234	1	PA_with_intermediate	test	ward_and_allport	82	25.0	9.476	to_hand	poldrack-single-stim	s639	False
301.235	0.1	0.499	301.734	0	PA_with_intermediate	test	ward_and_allport	71	25.0	0.499	to_board	poldrack-single-stim	s639	False
301.741	0.1	0.496	302.237	0	PA_with_intermediate	test	ward_and_allport	82	25.0	0.496	to_hand	poldrack-single-stim	s639	False
302.238	0.1	0.865	303.103	0	PA_with_intermediate	test	ward_and_allport	71	25.0	0.865	to_board	poldrack-single-stim	s639	False
303.11	0.1	0.494	303.604	0	PA_with_intermediate	test	ward_and_allport	82	25.0	0.494	to_hand	poldrack-single-stim	s639	False
303.606	0.1	0.998	304.604	0	PA_with_intermediate	test	ward_and_allport	89	25.0	0.998	to_board	poldrack-single-stim	s639	False
304.611	0.1	0.787	305.398	0	PA_with_intermediate	test	ward_and_allport	71	25.0	0.787	to_hand	poldrack-single-stim	s639	False
305.4	0.1	0.354	305.754	0	PA_with_intermediate	test	ward_and_allport	82	25.0	0.354	to_board	poldrack-single-stim	s639	False
305.76	0.1	0.72	306.48	0	PA_with_intermediate	test	ward_and_allport	71	25.0	0.72	to_hand	poldrack-single-stim	s639	False
306.482	0.1	0.387	306.869	0	PA_with_intermediate	test	ward_and_allport	89	25.0	0.387	to_board	poldrack-single-stim	s639	False
306.877	0.1	0.537	307.414	0	PA_with_intermediate	test	ward_and_allport	82	25.0	0.537	to_hand	poldrack-single-stim	s639	False
307.415	0.1	0.327	307.742	0	PA_with_intermediate	test	ward_and_allport	71	25.0	0.327	to_board	poldrack-single-stim	s639	False
307.749	0.1	2.479	310.228	0	PA_with_intermediate	test	ward_and_allport	89	25.0	2.479	to_hand	poldrack-single-stim	s639	False
310.229	0.1	1.091	311.32	0	PA_with_intermediate	test	ward_and_allport	71	25.0	1.091	to_board	poldrack-single-stim	s639	False
311.327	0.1	0.44	311.767	0	PA_with_intermediate	test	ward_and_allport	89	25.0	0.44	to_hand	poldrack-single-stim	s639	False
311.768	0.1	0.728	312.496	0	PA_with_intermediate	test	ward_and_allport	82	25.0	0.728	to_board	poldrack-single-stim	s639	False
312.503	0.1	0.645	313.148	0	PA_with_intermediate	test	ward_and_allport	71	25.0	0.645	to_hand	poldrack-single-stim	s639	False
313.149	0.1	0.286	313.435	0	PA_with_intermediate	test	ward_and_allport	82	25.0	0.286	to_board	poldrack-single-stim	s639	False
313.444	1.0	2.0	313.443	0	PA_with_intermediate	test	ward_and_allport	-1	25.0	n/a	feedback	poldrack-single-stim	s639	False
315.451	2.538	2.538	317.989	1	PA_without_intermediate	test	ward_and_allport	71	26.0	2.538	to_hand	poldrack-single-stim	s639	False
317.991	0.1	0.564	318.555	0	PA_without_intermediate	test	ward_and_allport	82	26.0	0.564	to_board	poldrack-single-stim	s639	False
318.562	0.1	0.554	319.116	0	PA_without_intermediate	test	ward_and_allport	71	26.0	0.554	to_hand	poldrack-single-stim	s639	False
319.117	0.1	0.356	319.473	0	PA_without_intermediate	test	ward_and_allport	89	26.0	0.356	to_board	poldrack-single-stim	s639	False
319.481	0.1	0.393	319.874	0	PA_without_intermediate	test	ward_and_allport	71	26.0	0.393	to_hand	poldrack-single-stim	s639	False
319.874	0.1	0.476	320.35	0	PA_without_intermediate	test	ward_and_allport	82	26.0	0.476	to_board	poldrack-single-stim	s639	False
320.36	1.0	2.0	320.359	0	PA_without_intermediate	test	ward_and_allport	-1	26.0	n/a	feedback	poldrack-single-stim	s639	False
322.368	5.405	5.405	327.773	1	PA_without_intermediate	test	ward_and_allport	82	27.0	5.405	to_hand	poldrack-single-stim	s639	False
327.774	0.1	0.37	328.144	0	PA_without_intermediate	test	ward_and_allport	71	27.0	0.37	to_board	poldrack-single-stim	s639	False
328.151	0.1	0.959	329.11	0	PA_without_intermediate	test	ward_and_allport	82	27.0	0.959	to_hand	poldrack-single-stim	s639	False
329.111	0.1	0.581	329.692	0	PA_without_intermediate	test	ward_and_allport	89	27.0	0.581	to_board	poldrack-single-stim	s639	False
329.7	0.1	0.432	330.132	0	PA_without_intermediate	test	ward_and_allport	82	27.0	0.432	to_hand	poldrack-single-stim	s639	False
330.133	0.1	0.285	330.418	0	PA_without_intermediate	test	ward_and_allport	71	27.0	0.285	to_board	poldrack-single-stim	s639	False
330.427	1.0	2.0	330.426	0	PA_without_intermediate	test	ward_and_allport	-1	27.0	n/a	feedback	poldrack-single-stim	s639	False
332.436	4.681	4.681	337.117	1	PA_with_intermediate	test	ward_and_allport	89	28.0	4.681	to_hand	poldrack-single-stim	s639	False
337.119	0.1	0.32	337.439	0	PA_with_intermediate	test	ward_and_allport	71	28.0	0.32	to_board	poldrack-single-stim	s639	False
337.447	0.1	0.348	337.795	0	PA_with_intermediate	test	ward_and_allport	89	28.0	0.348	to_hand	poldrack-single-stim	s639	False
337.797	0.1	0.495	338.292	0	PA_with_intermediate	test	ward_and_allport	82	28.0	0.495	to_board	poldrack-single-stim	s639	False
338.3	0.1	0.446	338.746	0	PA_with_intermediate	test	ward_and_allport	71	28.0	0.446	to_hand	poldrack-single-stim	s639	False
338.746	0.1	0.327	339.073	0	PA_with_intermediate	test	ward_and_allport	89	28.0	0.327	to_board	poldrack-single-stim	s639	False
339.082	1.0	2.544	339.081	0	PA_with_intermediate	test	ward_and_allport	-1	28.0	n/a	feedback	poldrack-single-stim	s639	False
341.635	3.588	3.588	345.223	1	PA_without_intermediate	test	ward_and_allport	82	29.0	3.588	to_hand	poldrack-single-stim	s639	False
345.223	0.1	0.296	345.519	0	PA_without_intermediate	test	ward_and_allport	89	29.0	0.296	to_board	poldrack-single-stim	s639	False
345.528	0.1	0.551	346.079	0	PA_without_intermediate	test	ward_and_allport	82	29.0	0.551	to_hand	poldrack-single-stim	s639	False
346.08	0.1	0.695	346.775	0	PA_without_intermediate	test	ward_and_allport	89	29.0	0.695	to_board	poldrack-single-stim	s639	False
346.785	0.1	0.81	347.595	0	PA_without_intermediate	test	ward_and_allport	82	29.0	0.81	to_hand	poldrack-single-stim	s639	False
347.595	0.1	0.283	347.878	0	PA_without_intermediate	test	ward_and_allport	71	29.0	0.283	to_board	poldrack-single-stim	s639	False
347.889	1.0	2.272	347.888	0	PA_without_intermediate	test	ward_and_allport	-1	29.0	n/a	feedback	poldrack-single-stim	s639	False
355.174	3.576	3.576	358.75	1	PA_with_intermediate	test	ward_and_allport	82	30.0	3.576	to_hand	poldrack-single-stim	s639	False
358.752	0.1	0.412	359.164	0	PA_with_intermediate	test	ward_and_allport	71	30.0	0.412	to_board	poldrack-single-stim	s639	False
359.173	0.1	0.708	359.881	0	PA_with_intermediate	test	ward_and_allport	82	30.0	0.708	to_hand	poldrack-single-stim	s639	False
359.883	0.1	0.459	360.342	0	PA_with_intermediate	test	ward_and_allport	89	30.0	0.459	to_board	poldrack-single-stim	s639	False
360.352	0.1	0.687	361.039	0	PA_with_intermediate	test	ward_and_allport	71	30.0	0.687	to_hand	poldrack-single-stim	s639	False
361.041	0.1	0.383	361.424	0	PA_with_intermediate	test	ward_and_allport	89	30.0	0.383	to_board	poldrack-single-stim	s639	False
361.435	1.0	4.04	361.434	0	PA_with_intermediate	test	ward_and_allport	-1	30.0	n/a	feedback	poldrack-single-stim	s639	False
365.484	4.248	4.248	369.732	1	PA_with_intermediate	test	ward_and_allport	89	31.0	4.248	to_hand	poldrack-single-stim	s639	False
369.733	0.1	0.446	370.179	0	PA_with_intermediate	test	ward_and_allport	71	31.0	0.446	to_board	poldrack-single-stim	s639	False
370.189	0.1	0.356	370.545	0	PA_with_intermediate	test	ward_and_allport	89	31.0	0.356	to_hand	poldrack-single-stim	s639	False
370.547	0.1	1.635	372.182	0	PA_with_intermediate	test	ward_and_allport	89	31.0	1.635	to_board	poldrack-single-stim	s639	False
372.191	0.1	0.442	372.633	0	PA_with_intermediate	test	ward_and_allport	71	31.0	0.442	to_hand	poldrack-single-stim	s639	False
372.635	0.1	0.75	373.385	0	PA_with_intermediate	test	ward_and_allport	82	31.0	0.75	to_board	poldrack-single-stim	s639	False
373.393	0.1	0.517	373.91	0	PA_with_intermediate	test	ward_and_allport	89	31.0	0.517	to_hand	poldrack-single-stim	s639	False
373.911	0.1	0.377	374.288	0	PA_with_intermediate	test	ward_and_allport	71	31.0	0.377	to_board	poldrack-single-stim	s639	False
374.299	0.1	0.584	374.883	0	PA_with_intermediate	test	ward_and_allport	82	31.0	0.584	to_hand	poldrack-single-stim	s639	False
374.883	0.1	0.624	375.507	0	PA_with_intermediate	test	ward_and_allport	71	31.0	0.624	to_board	poldrack-single-stim	s639	False
375.515	0.1	1.528	377.043	0	PA_with_intermediate	test	ward_and_allport	71	31.0	1.528	to_hand	poldrack-single-stim	s639	False
377.044	0.1	0.427	377.471	0	PA_with_intermediate	test	ward_and_allport	89	31.0	0.427	to_board	poldrack-single-stim	s639	False
377.479	1.0	2.272	377.478	0	PA_with_intermediate	test	ward_and_allport	-1	31.0	n/a	feedback	poldrack-single-stim	s639	False
379.758	5.163	5.163	384.921	1	PA_with_intermediate	test	ward_and_allport	82	32.0	5.163	to_hand	poldrack-single-stim	s639	False
384.922	0.1	0.402	385.324	0	PA_with_intermediate	test	ward_and_allport	89	32.0	0.402	to_board	poldrack-single-stim	s639	False
385.329	0.1	0.667	385.996	0	PA_with_intermediate	test	ward_and_allport	82	32.0	0.667	to_hand	poldrack-single-stim	s639	False
385.996	0.1	0.972	386.968	0	PA_with_intermediate	test	ward_and_allport	71	32.0	0.972	to_board	poldrack-single-stim	s639	False
386.976	0.1	0.402	387.378	0	PA_with_intermediate	test	ward_and_allport	89	32.0	0.402	to_hand	poldrack-single-stim	s639	False
387.38	0.1	0.36	387.74	0	PA_with_intermediate	test	ward_and_allport	71	32.0	0.36	to_board	poldrack-single-stim	s639	False
387.751	1.0	2.136	387.75	0	PA_with_intermediate	test	ward_and_allport	-1	32.0	n/a	feedback	poldrack-single-stim	s639	False
389.898	3.859	3.859	393.757	1	PA_with_intermediate	test	ward_and_allport	82	33.0	3.859	to_hand	poldrack-single-stim	s639	False
393.758	0.1	0.258	394.016	0	PA_with_intermediate	test	ward_and_allport	89	33.0	0.258	to_board	poldrack-single-stim	s639	False
394.027	0.1	1.143	395.17	0	PA_with_intermediate	test	ward_and_allport	82	33.0	1.143	to_hand	poldrack-single-stim	s639	False
395.172	0.1	0.321	395.493	0	PA_with_intermediate	test	ward_and_allport	71	33.0	0.321	to_board	poldrack-single-stim	s639	False
395.503	0.1	0.351	395.854	0	PA_with_intermediate	test	ward_and_allport	89	33.0	0.351	to_hand	poldrack-single-stim	s639	False
395.855	0.1	0.327	396.182	0	PA_with_intermediate	test	ward_and_allport	71	33.0	0.327	to_board	poldrack-single-stim	s639	False
396.194	1.0	2.0	396.193	0	PA_with_intermediate	test	ward_and_allport	-1	33.0	n/a	feedback	poldrack-single-stim	s639	False
398.204	3.204	3.204	401.408	1	PA_with_intermediate	test	ward_and_allport	71	34.0	3.204	to_hand	poldrack-single-stim	s639	False
401.409	0.1	0.318	401.727	0	PA_with_intermediate	test	ward_and_allport	89	34.0	0.318	to_board	poldrack-single-stim	s639	False
401.734	0.1	0.325	402.059	0	PA_with_intermediate	test	ward_and_allport	71	34.0	0.325	to_hand	poldrack-single-stim	s639	False
402.059	0.1	0.368	402.427	0	PA_with_intermediate	test	ward_and_allport	82	34.0	0.368	to_board	poldrack-single-stim	s639	False
402.437	0.1	0.408	402.845	0	PA_with_intermediate	test	ward_and_allport	89	34.0	0.408	to_hand	poldrack-single-stim	s639	False
402.846	0.1	0.467	403.313	0	PA_with_intermediate	test	ward_and_allport	82	34.0	0.467	to_board	poldrack-single-stim	s639	False
403.323	1.0	2.0	403.322	0	PA_with_intermediate	test	ward_and_allport	-1	34.0	n/a	feedback	poldrack-single-stim	s639	False
405.332	2.375	2.375	407.707	1	PA_without_intermediate	test	ward_and_allport	89	35.0	2.375	to_hand	poldrack-single-stim	s639	False
407.708	0.1	0.414	408.122	0	PA_without_intermediate	test	ward_and_allport	82	35.0	0.414	to_board	poldrack-single-stim	s639	False
408.13	0.1	0.69	408.82	0	PA_without_intermediate	test	ward_and_allport	89	35.0	0.69	to_hand	poldrack-single-stim	s639	False
408.821	0.1	0.708	409.529	0	PA_without_intermediate	test	ward_and_allport	82	35.0	0.708	to_board	poldrack-single-stim	s639	False
409.536	0.1	0.858	410.394	0	PA_without_intermediate	test	ward_and_allport	89	35.0	0.858	to_hand	poldrack-single-stim	s639	False
410.396	0.1	0.397	410.793	0	PA_without_intermediate	test	ward_and_allport	71	35.0	0.397	to_board	poldrack-single-stim	s639	False
410.803	1.0	2.408	410.802	0	PA_without_intermediate	test	ward_and_allport	-1	35.0	n/a	feedback	poldrack-single-stim	s639	False
413.22	5.396	5.396	418.616	1	PA_with_intermediate	test	ward_and_allport	82	36.0	5.396	to_hand	poldrack-single-stim	s639	False
418.618	0.1	0.487	419.105	0	PA_with_intermediate	test	ward_and_allport	71	36.0	0.487	to_board	poldrack-single-stim	s639	False
419.113	0.1	0.487	419.6	0	PA_with_intermediate	test	ward_and_allport	82	36.0	0.487	to_hand	poldrack-single-stim	s639	False
419.602	0.1	0.475	420.077	0	PA_with_intermediate	test	ward_and_allport	89	36.0	0.475	to_board	poldrack-single-stim	s639	False
420.087	0.1	0.671	420.758	0	PA_with_intermediate	test	ward_and_allport	71	36.0	0.671	to_hand	poldrack-single-stim	s639	False
420.759	0.1	0.581	421.34	0	PA_with_intermediate	test	ward_and_allport	82	36.0	0.581	to_board	poldrack-single-stim	s639	False
421.351	1.0	3.768	421.35	0	PA_with_intermediate	test	ward_and_allport	-1	36.0	n/a	feedback	poldrack-single-stim	s639	False
425.13	2.458	2.458	427.588	1	PA_with_intermediate	test	ward_and_allport	89	37.0	2.458	to_hand	poldrack-single-stim	s639	False
427.59	0.1	0.504	428.094	0	PA_with_intermediate	test	ward_and_allport	82	37.0	0.504	to_board	poldrack-single-stim	s639	False
428.104	0.1	0.433	428.537	0	PA_with_intermediate	test	ward_and_allport	89	37.0	0.433	to_hand	poldrack-single-stim	s639	False
428.537	0.1	0.385	428.922	0	PA_with_intermediate	test	ward_and_allport	71	37.0	0.385	to_board	poldrack-single-stim	s639	False
428.933	0.1	0.416	429.349	0	PA_with_intermediate	test	ward_and_allport	82	37.0	0.416	to_hand	poldrack-single-stim	s639	False
429.35	0.1	0.296	429.646	0	PA_with_intermediate	test	ward_and_allport	89	37.0	0.296	to_board	poldrack-single-stim	s639	False
429.656	1.0	2.68	429.655	0	PA_with_intermediate	test	ward_and_allport	-1	37.0	n/a	feedback	poldrack-single-stim	s639	False
432.345	6.514	6.514	438.859	1	PA_without_intermediate	test	ward_and_allport	89	38.0	6.514	to_hand	poldrack-single-stim	s639	False
438.861	0.1	1.583	440.444	0	PA_without_intermediate	test	ward_and_allport	71	38.0	1.583	to_board	poldrack-single-stim	s639	False
440.454	0.1	0.777	441.231	0	PA_without_intermediate	test	ward_and_allport	89	38.0	0.777	to_hand	poldrack-single-stim	s639	False
441.232	0.1	0.391	441.623	0	PA_without_intermediate	test	ward_and_allport	71	38.0	0.391	to_board	poldrack-single-stim	s639	False
441.633	0.1	0.558	442.191	0	PA_without_intermediate	test	ward_and_allport	89	38.0	0.558	to_hand	poldrack-single-stim	s639	False
442.193	0.1	0.454	442.647	0	PA_without_intermediate	test	ward_and_allport	82	38.0	0.454	to_board	poldrack-single-stim	s639	False
442.659	1.0	3.224	442.658	0	PA_without_intermediate	test	ward_and_allport	-1	38.0	n/a	feedback	poldrack-single-stim	s639	False
445.893	2.758	2.758	448.651	1	PA_without_intermediate	test	ward_and_allport	71	39.0	2.758	to_hand	poldrack-single-stim	s639	False
448.653	0.1	0.293	448.946	0	PA_without_intermediate	test	ward_and_allport	89	39.0	0.293	to_board	poldrack-single-stim	s639	False
448.954	0.1	0.381	449.335	0	PA_without_intermediate	test	ward_and_allport	71	39.0	0.381	to_hand	poldrack-single-stim	s639	False
449.336	0.1	0.289	449.625	0	PA_without_intermediate	test	ward_and_allport	82	39.0	0.289	to_board	poldrack-single-stim	s639	False
449.636	0.1	0.341	449.977	0	PA_without_intermediate	test	ward_and_allport	71	39.0	0.341	to_hand	poldrack-single-stim	s639	False
449.979	0.1	0.307	450.286	0	PA_without_intermediate	test	ward_and_allport	89	39.0	0.307	to_board	poldrack-single-stim	s639	False
450.297	1.0	3.36	450.296	0	PA_without_intermediate	test	ward_and_allport	-1	39.0	n/a	feedback	poldrack-single-stim	s639	False
453.666	3.409	3.409	457.075	1	PA_without_intermediate	test	ward_and_allport	89	40.0	3.409	to_hand	poldrack-single-stim	s639	False
457.076	0.1	0.266	457.342	0	PA_without_intermediate	test	ward_and_allport	71	40.0	0.266	to_board	poldrack-single-stim	s639	False
457.349	0.1	0.375	457.724	0	PA_without_intermediate	test	ward_and_allport	89	40.0	0.375	to_hand	poldrack-single-stim	s639	False
457.725	0.1	0.36	458.085	0	PA_without_intermediate	test	ward_and_allport	82	40.0	0.36	to_board	poldrack-single-stim	s639	False
458.094	0.1	0.346	458.44	0	PA_without_intermediate	test	ward_and_allport	89	40.0	0.346	to_hand	poldrack-single-stim	s639	False
458.441	0.1	0.287	458.728	0	PA_without_intermediate	test	ward_and_allport	71	40.0	0.287	to_board	poldrack-single-stim	s639	False
458.74	1.0	2.0	458.739	0	PA_without_intermediate	test	ward_and_allport	-1	40.0	n/a	feedback	poldrack-single-stim	s639	False
460.751	2.598	2.598	463.349	1	PA_without_intermediate	test	ward_and_allport	71	41.0	2.598	to_hand	poldrack-single-stim	s639	False
463.35	0.1	0.241	463.591	0	PA_without_intermediate	test	ward_and_allport	89	41.0	0.241	to_board	poldrack-single-stim	s639	False
463.599	0.1	0.276	463.875	0	PA_without_intermediate	test	ward_and_allport	71	41.0	0.276	to_hand	poldrack-single-stim	s639	False
463.876	0.1	0.227	464.103	0	PA_without_intermediate	test	ward_and_allport	89	41.0	0.227	to_board	poldrack-single-stim	s639	False
464.111	0.1	0.373	464.484	0	PA_without_intermediate	test	ward_and_allport	71	41.0	0.373	to_hand	poldrack-single-stim	s639	False
464.485	0.1	0.465	464.95	0	PA_without_intermediate	test	ward_and_allport	82	41.0	0.465	to_board	poldrack-single-stim	s639	False
464.959	1.0	2.408	464.958	0	PA_without_intermediate	test	ward_and_allport	-1	41.0	n/a	feedback	poldrack-single-stim	s639	False
467.376	2.97	2.97	470.346	1	PA_with_intermediate	test	ward_and_allport	71	42.0	2.97	to_hand	poldrack-single-stim	s639	False
470.347	0.1	0.322	470.669	0	PA_with_intermediate	test	ward_and_allport	82	42.0	0.322	to_board	poldrack-single-stim	s639	False
470.676	0.1	0.296	470.972	0	PA_with_intermediate	test	ward_and_allport	71	42.0	0.296	to_hand	poldrack-single-stim	s639	False
470.973	0.1	0.248	471.221	0	PA_with_intermediate	test	ward_and_allport	89	42.0	0.248	to_board	poldrack-single-stim	s639	False
471.232	0.1	0.679	471.911	0	PA_with_intermediate	test	ward_and_allport	82	42.0	0.679	to_hand	poldrack-single-stim	s639	False
471.913	0.1	0.763	472.676	0	PA_with_intermediate	test	ward_and_allport	71	42.0	0.763	to_board	poldrack-single-stim	s639	False
472.688	1.0	2.136	472.687	0	PA_with_intermediate	test	ward_and_allport	-1	42.0	n/a	feedback	poldrack-single-stim	s639	False
474.835	4.437	4.437	479.272	1	PA_without_intermediate	test	ward_and_allport	89	43.0	4.437	to_hand	poldrack-single-stim	s639	False
479.274	0.1	0.267	479.541	0	PA_without_intermediate	test	ward_and_allport	71	43.0	0.267	to_board	poldrack-single-stim	s639	False
479.551	0.1	0.285	479.836	0	PA_without_intermediate	test	ward_and_allport	89	43.0	0.285	to_hand	poldrack-single-stim	s639	False
479.838	0.1	0.302	480.14	0	PA_without_intermediate	test	ward_and_allport	71	43.0	0.302	to_board	poldrack-single-stim	s639	False
480.15	0.1	0.415	480.565	0	PA_without_intermediate	test	ward_and_allport	89	43.0	0.415	to_hand	poldrack-single-stim	s639	False
480.566	0.1	0.318	480.884	0	PA_without_intermediate	test	ward_and_allport	82	43.0	0.318	to_board	poldrack-single-stim	s639	False
480.895	1.0	5.128	480.894	0	PA_without_intermediate	test	ward_and_allport	-1	43.0	n/a	feedback	poldrack-single-stim	s639	False
486.032	1.694	1.694	487.726	1	PA_without_intermediate	test	ward_and_allport	89	44.0	1.694	to_hand	poldrack-single-stim	s639	False
487.728	0.1	0.532	488.26	0	PA_without_intermediate	test	ward_and_allport	82	44.0	0.532	to_board	poldrack-single-stim	s639	False
488.271	0.1	0.586	488.857	0	PA_without_intermediate	test	ward_and_allport	89	44.0	0.586	to_hand	poldrack-single-stim	s639	False
488.859	0.1	0.969	489.828	0	PA_without_intermediate	test	ward_and_allport	82	44.0	0.969	to_board	poldrack-single-stim	s639	False
489.841	0.1	0.518	490.359	0	PA_without_intermediate	test	ward_and_allport	89	44.0	0.518	to_hand	poldrack-single-stim	s639	False
490.36	0.1	0.338	490.698	0	PA_without_intermediate	test	ward_and_allport	71	44.0	0.338	to_board	poldrack-single-stim	s639	False
490.71	1.0	2.136	490.709	0	PA_without_intermediate	test	ward_and_allport	-1	44.0	n/a	feedback	poldrack-single-stim	s639	False
497.86	1.574	1.574	499.434	1	PA_without_intermediate	test	ward_and_allport	71	45.0	1.574	to_hand	poldrack-single-stim	s639	False
499.436	0.1	0.396	499.832	0	PA_without_intermediate	test	ward_and_allport	89	45.0	0.396	to_board	poldrack-single-stim	s639	False
499.844	0.1	0.538	500.382	0	PA_without_intermediate	test	ward_and_allport	71	45.0	0.538	to_hand	poldrack-single-stim	s639	False
500.384	0.1	1.059	501.443	0	PA_without_intermediate	test	ward_and_allport	89	45.0	1.059	to_board	poldrack-single-stim	s639	False
501.455	0.1	0.354	501.809	0	PA_without_intermediate	test	ward_and_allport	71	45.0	0.354	to_hand	poldrack-single-stim	s639	False
501.811	0.1	0.439	502.25	0	PA_without_intermediate	test	ward_and_allport	82	45.0	0.439	to_board	poldrack-single-stim	s639	False
502.263	1.0	5.264	502.262	0	PA_without_intermediate	test	ward_and_allport	-1	45.0	n/a	feedback	poldrack-single-stim	s639	False
507.538	2.239	2.239	509.777	1	PA_with_intermediate	test	ward_and_allport	89	46.0	2.239	to_hand	poldrack-single-stim	s639	False
509.779	0.1	0.263	510.042	0	PA_with_intermediate	test	ward_and_allport	82	46.0	0.263	to_board	poldrack-single-stim	s639	False
510.053	0.1	0.495	510.548	0	PA_with_intermediate	test	ward_and_allport	89	46.0	0.495	to_hand	poldrack-single-stim	s639	False
510.549	0.1	0.353	510.902	0	PA_with_intermediate	test	ward_and_allport	71	46.0	0.353	to_board	poldrack-single-stim	s639	False
510.913	0.1	0.406	511.319	0	PA_with_intermediate	test	ward_and_allport	89	46.0	0.406	to_hand	poldrack-single-stim	s639	False
511.32	0.1	0.826	512.146	0	PA_with_intermediate	test	ward_and_allport	89	46.0	0.826	to_board	poldrack-single-stim	s639	False
512.157	0.1	0.305	512.462	0	PA_with_intermediate	test	ward_and_allport	82	46.0	0.305	to_hand	poldrack-single-stim	s639	False
512.463	0.1	0.46	512.923	0	PA_with_intermediate	test	ward_and_allport	71	46.0	0.46	to_board	poldrack-single-stim	s639	False
512.935	1.0	4.04	512.934	0	PA_with_intermediate	test	ward_and_allport	-1	46.0	n/a	feedback	poldrack-single-stim	s639	False
516.985	2.559	2.559	519.544	1	PA_with_intermediate	test	ward_and_allport	71	47.0	2.559	to_hand	poldrack-single-stim	s639	False
519.546	0.1	0.408	519.954	0	PA_with_intermediate	test	ward_and_allport	82	47.0	0.408	to_board	poldrack-single-stim	s639	False
519.961	0.1	0.34	520.301	0	PA_with_intermediate	test	ward_and_allport	71	47.0	0.34	to_hand	poldrack-single-stim	s639	False
520.303	0.1	0.279	520.582	0	PA_with_intermediate	test	ward_and_allport	89	47.0	0.279	to_board	poldrack-single-stim	s639	False
520.593	0.1	0.504	521.097	0	PA_with_intermediate	test	ward_and_allport	82	47.0	0.504	to_hand	poldrack-single-stim	s639	False
521.098	0.1	0.399	521.497	0	PA_with_intermediate	test	ward_and_allport	89	47.0	0.399	to_board	poldrack-single-stim	s639	False
521.51	1.0	2.136	521.509	0	PA_with_intermediate	test	ward_and_allport	-1	47.0	n/a	feedback	poldrack-single-stim	s639	False
