onset	duration	correct	correct_response	cue	experiment_exp_id	flanker_location	flanker_middle_direction	flanker_type	key_press	response_time	worker_id
3.513864	1.7	1.0	71.0	double	attention_network_task	down	right	congruent	71	0.586	s642
6.122	1.7	1.0	71.0	double	attention_network_task	up	right	incongruent	71	0.963	s642
8.729	1.7	1.0	71.0	spatial	attention_network_task	up	right	congruent	71	0.511	s642
11.336592000000001	1.7	1.0	89.0	double	attention_network_task	down	left	congruent	89	0.589	s642
13.944456	1.7	1.0	89.0	double	attention_network_task	up	left	congruent	89	0.813	s642
16.552592	1.7	1.0	71.0	spatial	attention_network_task	down	right	incongruent	71	0.549	s642
19.16	1.7	1.0	71.0	spatial	attention_network_task	up	right	congruent	71	0.573	s642
21.766592	1.7	1.0	71.0	double	attention_network_task	up	right	congruent	71	0.52	s642
24.375	1.7	1.0	89.0	spatial	attention_network_task	down	left	congruent	89	1.132	s642
26.982592	1.7	1.0	71.0	spatial	attention_network_task	up	right	congruent	71	0.839	s642
29.591	1.7	1.0	89.0	spatial	attention_network_task	up	left	incongruent	89	0.593	s642
32.199	1.7	1.0	89.0	spatial	attention_network_task	down	left	incongruent	89	0.864	s642
34.804592	1.7	1.0	71.0	spatial	attention_network_task	up	right	incongruent	71	0.558	s642
37.412864	1.7	1.0	89.0	spatial	attention_network_task	down	left	incongruent	89	0.621	s642
40.018728	1.7	1.0	89.0	double	attention_network_task	down	left	incongruent	89	0.68	s642
42.626456	1.7	1.0	71.0	double	attention_network_task	down	right	incongruent	71	0.693	s642
45.233728	1.7	1.0	71.0	spatial	attention_network_task	up	right	incongruent	71	0.738	s642
47.843	1.7	1.0	71.0	spatial	attention_network_task	down	right	incongruent	71	0.632	s642
50.450592	1.7	1.0	71.0	spatial	attention_network_task	up	right	incongruent	71	0.884	s642
53.059	1.7	1.0	89.0	spatial	attention_network_task	up	left	congruent	89	0.463	s642
55.667	1.7	1.0	71.0	double	attention_network_task	down	right	congruent	71	0.785	s642
58.273455999999996	1.7	1.0	89.0	double	attention_network_task	down	left	incongruent	89	0.604	s642
60.880592	1.7	1.0	89.0	spatial	attention_network_task	up	left	congruent	89	0.58	s642
63.489	1.7	1.0	89.0	spatial	attention_network_task	up	left	congruent	89	0.485	s642
66.096864	1.7	1.0	89.0	spatial	attention_network_task	up	left	congruent	89	0.487	s642
68.703184	1.7	1.0	89.0	spatial	attention_network_task	down	left	incongruent	89	0.586	s642
71.309864	1.7	1.0	89.0	double	attention_network_task	up	left	congruent	89	0.528	s642
73.918	1.7	1.0	71.0	spatial	attention_network_task	down	right	congruent	71	0.564	s642
76.52486400000001	1.7	1.0	71.0	double	attention_network_task	up	right	incongruent	71	0.908	s642
79.13186400000001	1.7	1.0	71.0	spatial	attention_network_task	up	right	incongruent	71	0.779	s642
81.738864	1.7	1.0	89.0	double	attention_network_task	down	left	incongruent	89	0.564	s642
84.345456	1.7	1.0	71.0	spatial	attention_network_task	up	right	congruent	71	0.448	s642
86.954	1.7	1.0	71.0	spatial	attention_network_task	up	right	congruent	71	0.534	s642
89.561728	1.7	1.0	89.0	double	attention_network_task	up	left	incongruent	89	0.556	s642
92.169	1.7	1.0	71.0	spatial	attention_network_task	down	right	congruent	71	0.561	s642
94.775864	1.7	1.0	89.0	spatial	attention_network_task	down	left	congruent	89	0.437	s642
97.38359200000001	1.7	1.0	71.0	double	attention_network_task	down	right	incongruent	71	0.679	s642
99.991456	1.7	1.0	89.0	double	attention_network_task	up	left	congruent	89	0.502	s642
102.6	1.7	1.0	71.0	double	attention_network_task	up	right	incongruent	71	0.541	s642
105.205864	1.7	1.0	89.0	spatial	attention_network_task	up	left	incongruent	89	0.498	s642
107.813864	1.7	1.0	71.0	double	attention_network_task	up	right	incongruent	71	0.649	s642
110.421864	1.7	1.0	71.0	spatial	attention_network_task	down	right	incongruent	71	0.704	s642
113.029864	1.7	1.0	89.0	double	attention_network_task	down	left	congruent	89	0.67	s642
115.636728	1.7	1.0	71.0	spatial	attention_network_task	up	right	incongruent	71	0.747	s642
118.244864	1.7	1.0	71.0	spatial	attention_network_task	up	right	incongruent	71	0.625	s642
120.85159200000001	1.7	1.0	71.0	spatial	attention_network_task	down	right	incongruent	71	0.593	s642
123.46	1.7	1.0	71.0	double	attention_network_task	up	right	incongruent	71	1.049	s642
126.066864	1.7	1.0	89.0	double	attention_network_task	down	left	congruent	89	0.569	s642
128.674	1.7	1.0	89.0	spatial	attention_network_task	down	left	congruent	89	0.551	s642
131.281864	1.7	1.0	71.0	double	attention_network_task	down	right	incongruent	71	0.795	s642
133.889048	1.7	1.0	71.0	spatial	attention_network_task	down	right	congruent	71	1.046	s642
136.496728	1.7	1.0	71.0	double	attention_network_task	up	right	congruent	71	0.747	s642
139.104864	1.7	1.0	89.0	double	attention_network_task	down	left	congruent	89	0.471	s642
141.712	1.7	1.0	89.0	double	attention_network_task	up	left	incongruent	89	0.778	s642
144.320864	1.7	1.0	89.0	spatial	attention_network_task	down	left	incongruent	89	0.689	s642
146.929	1.7	1.0	71.0	double	attention_network_task	up	right	congruent	71	0.598	s642
149.535864	1.7	1.0	71.0	spatial	attention_network_task	down	right	incongruent	71	0.852	s642
152.143728	1.7	1.0	71.0	double	attention_network_task	up	right	incongruent	71	0.787	s642
154.752728	1.7	1.0	89.0	spatial	attention_network_task	up	left	incongruent	89	0.835	s642
157.360864	1.7	1.0	89.0	double	attention_network_task	down	left	congruent	89	0.676	s642
159.968	1.7	1.0	89.0	double	attention_network_task	up	left	incongruent	89	0.719	s642
162.574864	1.7	1.0	71.0	double	attention_network_task	down	right	incongruent	71	0.83	s642
165.182	1.7	1.0	89.0	spatial	attention_network_task	down	left	congruent	89	0.468	s642
167.788728	1.7	1.0	71.0	double	attention_network_task	up	right	congruent	71	0.648	s642
180.904	1.7	1.0	89.0	spatial	attention_network_task	down	left	incongruent	89	0.852	s642
183.513	1.7	1.0	71.0	spatial	attention_network_task	down	right	incongruent	71	0.514	s642
186.119864	1.7	1.0	71.0	spatial	attention_network_task	up	right	congruent	71	0.632	s642
188.727728	1.7	1.0	89.0	spatial	attention_network_task	down	left	congruent	89	0.467	s642
191.33459200000001	1.7	1.0	89.0	double	attention_network_task	up	left	incongruent	89	1.317	s642
193.942	1.7	1.0	89.0	double	attention_network_task	down	left	congruent	89	0.49	s642
196.549864	1.7	1.0	71.0	double	attention_network_task	down	right	congruent	71	0.628	s642
199.156864	1.7	1.0	71.0	spatial	attention_network_task	down	right	congruent	71	0.48	s642
201.765	1.7	1.0	71.0	double	attention_network_task	down	right	congruent	71	0.586	s642
204.372592	1.7	1.0	89.0	double	attention_network_task	down	left	incongruent	89	0.733	s642
206.979456	1.7	1.0	71.0	spatial	attention_network_task	up	right	congruent	71	0.668	s642
209.586864	1.7	1.0	89.0	spatial	attention_network_task	down	left	congruent	89	0.493	s642
212.194864	1.7	1.0	71.0	spatial	attention_network_task	down	right	congruent	71	0.506	s642
214.803	1.7	1.0	71.0	spatial	attention_network_task	down	right	incongruent	71	0.772	s642
217.411	1.7	1.0	71.0	double	attention_network_task	down	right	congruent	71	0.788	s642
220.017864	1.7	1.0	71.0	double	attention_network_task	down	right	congruent	71	0.622	s642
222.625	1.7	1.0	89.0	double	attention_network_task	down	left	congruent	89	0.57	s642
225.232864	1.7	1.0	71.0	double	attention_network_task	up	right	congruent	71	0.584	s642
227.84	1.7	1.0	89.0	double	attention_network_task	down	left	congruent	89	0.435	s642
230.446592	1.7	1.0	89.0	spatial	attention_network_task	up	left	congruent	89	0.703	s642
233.054	1.7	1.0	89.0	spatial	attention_network_task	down	left	incongruent	89	0.833	s642
235.66018400000002	1.7	1.0	71.0	double	attention_network_task	down	right	incongruent	71	0.778	s642
238.26832000000002	1.7	1.0	71.0	spatial	attention_network_task	down	right	congruent	71	0.693	s642
240.877	1.7	1.0	89.0	spatial	attention_network_task	down	left	congruent	89	0.527	s642
243.483864	1.7	1.0	89.0	spatial	attention_network_task	up	left	congruent	89	0.534	s642
246.09186400000002	1.7	1.0	89.0	double	attention_network_task	up	left	incongruent	89	0.529	s642
248.69886400000001	1.7	1.0	89.0	double	attention_network_task	down	left	incongruent	89	0.63	s642
251.308	1.7	1.0	71.0	double	attention_network_task	down	right	incongruent	71	0.705	s642
253.914864	1.7	1.0	89.0	spatial	attention_network_task	up	left	incongruent	89	0.538	s642
256.522048	1.7	1.0	89.0	spatial	attention_network_task	up	left	incongruent	89	0.788	s642
259.130864	1.7	1.0	89.0	double	attention_network_task	down	left	incongruent	89	0.693	s642
261.73659200000003	1.7	1.0	89.0	double	attention_network_task	down	left	incongruent	89	1.438	s642
264.344048	1.7	1.0	89.0	spatial	attention_network_task	up	left	incongruent	89	0.845	s642
266.952864	1.7	1.0	89.0	double	attention_network_task	down	left	incongruent	89	0.622	s642
269.560728	1.7	1.0	89.0	double	attention_network_task	up	left	incongruent	89	0.66	s642
272.167728	1.7	1.0	71.0	double	attention_network_task	up	right	incongruent	71	0.807	s642
274.776	1.7	1.0	71.0	double	attention_network_task	down	right	congruent	71	0.948	s642
277.382	1.7	1.0	71.0	spatial	attention_network_task	down	right	incongruent	71	0.987	s642
279.989728	1.7	1.0	89.0	spatial	attention_network_task	down	left	congruent	89	0.632	s642
282.596	1.7	1.0	71.0	spatial	attention_network_task	up	right	congruent	71	0.518	s642
285.203	1.7	1.0	71.0	spatial	attention_network_task	up	right	incongruent	71	0.759	s642
287.809728	1.7	1.0	89.0	double	attention_network_task	up	left	congruent	89	0.715	s642
290.418	1.7	1.0	89.0	spatial	attention_network_task	down	left	incongruent	89	0.756	s642
293.024864	1.7	1.0	89.0	spatial	attention_network_task	up	left	congruent	89	0.648	s642
295.630728	1.7	1.0	89.0	spatial	attention_network_task	up	left	congruent	89	0.647	s642
298.24	1.7	1.0	71.0	spatial	attention_network_task	down	right	congruent	71	0.583	s642
300.848	1.7	1.0	89.0	double	attention_network_task	up	left	incongruent	89	0.545	s642
303.456	1.7	1.0	71.0	double	attention_network_task	down	right	congruent	71	0.527	s642
306.064	1.7	1.0	89.0	spatial	attention_network_task	up	left	incongruent	89	0.853	s642
308.672	1.7	1.0	89.0	double	attention_network_task	up	left	congruent	89	0.595	s642
311.28	1.7	1.0	89.0	spatial	attention_network_task	up	left	incongruent	89	0.636	s642
313.88572800000003	1.7	1.0	89.0	double	attention_network_task	up	left	congruent	89	0.523	s642
316.493864	1.7	1.0	89.0	double	attention_network_task	up	left	incongruent	89	0.45	s642
319.101912	1.7	1.0	71.0	double	attention_network_task	down	right	incongruent	71	0.778	s642
321.709728	1.7	1.0	71.0	spatial	attention_network_task	down	right	congruent	71	0.582	s642
324.316864	1.7	1.0	71.0	spatial	attention_network_task	down	right	congruent	71	0.503	s642
326.923864	1.7	1.0	71.0	double	attention_network_task	up	right	congruent	71	0.592	s642
329.532	1.7	1.0	71.0	double	attention_network_task	up	right	congruent	71	0.563	s642
332.14	1.7	1.0	71.0	spatial	attention_network_task	up	right	incongruent	71	0.782	s642
334.748	1.7	1.0	89.0	spatial	attention_network_task	down	left	congruent	89	0.607	s642
337.358	1.7	1.0	71.0	double	attention_network_task	down	right	incongruent	71	0.678	s642
339.964864	1.7	1.0	89.0	spatial	attention_network_task	down	left	incongruent	89	0.582	s642
342.571728	1.7	1.0	71.0	double	attention_network_task	up	right	incongruent	71	0.641	s642
345.179864	1.7	1.0	89.0	spatial	attention_network_task	down	left	congruent	89	0.433	s642
