onset	duration	block_duration	movement_onset	planning	condition	exp_stage	experiment_exp_id	key_press	problem_id	response_time	trial_id	trial_type	worker_id	junk
3.014	2.984	2.984	5.998	1	UA_with_intermediate	practice	ward_and_allport	71	0.0	2.984	to_hand	poldrack-single-stim	s633	False
6.0	0.1	0.6	6.6	0	UA_with_intermediate	practice	ward_and_allport	82	0.0	0.6	to_board	poldrack-single-stim	s633	False
6.603	0.1	0.479	7.082	0	UA_with_intermediate	practice	ward_and_allport	71	0.0	0.479	to_hand	poldrack-single-stim	s633	False
7.084	0.1	0.37	7.454	0	UA_with_intermediate	practice	ward_and_allport	89	0.0	0.37	to_board	poldrack-single-stim	s633	False
7.456	0.1	0.448	7.904	0	UA_with_intermediate	practice	ward_and_allport	82	0.0	0.448	to_hand	poldrack-single-stim	s633	False
7.905	0.1	0.389	8.294	0	UA_with_intermediate	practice	ward_and_allport	89	0.0	0.389	to_board	poldrack-single-stim	s633	False
8.299	1.0	2.5	8.298	0	UA_with_intermediate	practice	ward_and_allport	-1	0.0	n/a	feedback	poldrack-single-stim	s633	False
10.802	2.799	2.799	13.601	1	UA_with_intermediate	practice	ward_and_allport	71	1.0	2.799	to_hand	poldrack-single-stim	s633	False
13.602	0.1	2.101	15.703	0	UA_with_intermediate	practice	ward_and_allport	82	1.0	2.101	to_board	poldrack-single-stim	s633	False
15.705	0.1	1.129	16.834	0	UA_with_intermediate	practice	ward_and_allport	89	1.0	1.129	to_hand	poldrack-single-stim	s633	False
16.835	0.1	0.405	17.24	0	UA_with_intermediate	practice	ward_and_allport	71	1.0	0.405	to_board	poldrack-single-stim	s633	False
17.242	0.1	0.453	17.695	0	UA_with_intermediate	practice	ward_and_allport	82	1.0	0.453	to_hand	poldrack-single-stim	s633	False
17.697	0.1	0.692	18.389	0	UA_with_intermediate	practice	ward_and_allport	89	1.0	0.692	to_board	poldrack-single-stim	s633	False
18.391	0.1	0.388	18.779	0	UA_with_intermediate	practice	ward_and_allport	71	1.0	0.388	to_hand	poldrack-single-stim	s633	False
18.78	0.1	0.426	19.206	0	UA_with_intermediate	practice	ward_and_allport	89	1.0	0.426	to_board	poldrack-single-stim	s633	False
19.21	1.0	2.1	19.209	0	UA_with_intermediate	practice	ward_and_allport	-1	1.0	n/a	feedback	poldrack-single-stim	s633	False
21.311	2.047	2.047	23.358	1	UA_without_intermediate	practice	ward_and_allport	82	2.0	2.047	to_hand	poldrack-single-stim	s633	False
23.36	0.1	0.324	23.684	0	UA_without_intermediate	practice	ward_and_allport	89	2.0	0.324	to_board	poldrack-single-stim	s633	False
23.685	0.1	1.489	25.174	0	UA_without_intermediate	practice	ward_and_allport	71	2.0	1.489	to_hand	poldrack-single-stim	s633	False
25.176	0.1	0.885	26.061	0	UA_without_intermediate	practice	ward_and_allport	89	2.0	0.885	to_board	poldrack-single-stim	s633	False
26.064	0.1	0.486	26.55	0	UA_without_intermediate	practice	ward_and_allport	71	2.0	0.486	to_hand	poldrack-single-stim	s633	False
26.552	0.1	0.355	26.907	0	UA_without_intermediate	practice	ward_and_allport	89	2.0	0.355	to_board	poldrack-single-stim	s633	False
26.912	1.0	2.2	26.911	0	UA_without_intermediate	practice	ward_and_allport	-1	2.0	n/a	feedback	poldrack-single-stim	s633	False
29.115	2.155	2.155	31.27	1	UA_without_intermediate	practice	ward_and_allport	71	3.0	2.155	to_hand	poldrack-single-stim	s633	False
31.27	0.1	0.352	31.622	0	UA_without_intermediate	practice	ward_and_allport	89	3.0	0.352	to_board	poldrack-single-stim	s633	False
31.625	0.1	1.266	32.891	0	UA_without_intermediate	practice	ward_and_allport	82	3.0	1.266	to_hand	poldrack-single-stim	s633	False
32.891	0.1	0.346	33.237	0	UA_without_intermediate	practice	ward_and_allport	89	3.0	0.346	to_board	poldrack-single-stim	s633	False
33.24	0.1	0.28	33.52	0	UA_without_intermediate	practice	ward_and_allport	71	3.0	0.28	to_hand	poldrack-single-stim	s633	False
33.521	0.1	0.273	33.794	0	UA_without_intermediate	practice	ward_and_allport	89	3.0	0.273	to_board	poldrack-single-stim	s633	False
33.801	1.0	2.0	33.8	0	UA_without_intermediate	practice	ward_and_allport	-1	3.0	n/a	feedback	poldrack-single-stim	s633	False
37.809	6.614	6.614	44.423	1	PA_with_intermediate	test	ward_and_allport	82	0.0	6.614	to_hand	poldrack-single-stim	s633	False
44.425	0.1	0.343	44.768	0	PA_with_intermediate	test	ward_and_allport	89	0.0	0.343	to_board	poldrack-single-stim	s633	False
44.77	0.1	1.512	46.282	0	PA_with_intermediate	test	ward_and_allport	82	0.0	1.512	to_hand	poldrack-single-stim	s633	False
46.284	0.1	0.487	46.771	0	PA_with_intermediate	test	ward_and_allport	71	0.0	0.487	to_board	poldrack-single-stim	s633	False
46.772	0.1	0.578	47.35	0	PA_with_intermediate	test	ward_and_allport	89	0.0	0.578	to_hand	poldrack-single-stim	s633	False
47.352	0.1	0.917	48.269	0	PA_with_intermediate	test	ward_and_allport	82	0.0	0.917	to_board	poldrack-single-stim	s633	False
48.274	1.0	4.176	48.273	0	PA_with_intermediate	test	ward_and_allport	-1	0.0	n/a	feedback	poldrack-single-stim	s633	False
52.453	3.769	3.769	56.222	1	PA_with_intermediate	test	ward_and_allport	71	1.0	3.769	to_hand	poldrack-single-stim	s633	False
56.223	0.1	0.512	56.735	0	PA_with_intermediate	test	ward_and_allport	89	1.0	0.512	to_board	poldrack-single-stim	s633	False
56.738	0.1	0.565	57.303	0	PA_with_intermediate	test	ward_and_allport	71	1.0	0.565	to_hand	poldrack-single-stim	s633	False
57.305	0.1	0.566	57.871	0	PA_with_intermediate	test	ward_and_allport	82	1.0	0.566	to_board	poldrack-single-stim	s633	False
57.874	0.1	0.753	58.627	0	PA_with_intermediate	test	ward_and_allport	89	1.0	0.753	to_hand	poldrack-single-stim	s633	False
58.628	0.1	0.37	58.998	0	PA_with_intermediate	test	ward_and_allport	82	1.0	0.37	to_board	poldrack-single-stim	s633	False
59.005	1.0	3.36	59.004	0	PA_with_intermediate	test	ward_and_allport	-1	1.0	n/a	feedback	poldrack-single-stim	s633	False
62.367	3.056	3.056	65.423	1	PA_with_intermediate	test	ward_and_allport	89	2.0	3.056	to_hand	poldrack-single-stim	s633	False
65.425	0.1	0.352	65.777	0	PA_with_intermediate	test	ward_and_allport	71	2.0	0.352	to_board	poldrack-single-stim	s633	False
65.78	0.1	1.585	67.365	0	PA_with_intermediate	test	ward_and_allport	89	2.0	1.585	to_hand	poldrack-single-stim	s633	False
67.366	0.1	0.364	67.73	0	PA_with_intermediate	test	ward_and_allport	82	2.0	0.364	to_board	poldrack-single-stim	s633	False
67.732	0.1	1.403	69.135	0	PA_with_intermediate	test	ward_and_allport	71	2.0	1.403	to_hand	poldrack-single-stim	s633	False
69.137	0.1	0.422	69.559	0	PA_with_intermediate	test	ward_and_allport	82	2.0	0.422	to_board	poldrack-single-stim	s633	False
69.567	1.0	2.0	69.566	0	PA_with_intermediate	test	ward_and_allport	-1	2.0	n/a	feedback	poldrack-single-stim	s633	False
71.57	3.544	3.544	75.114	1	PA_without_intermediate	test	ward_and_allport	82	3.0	3.544	to_hand	poldrack-single-stim	s633	False
75.115	0.1	0.34	75.455	0	PA_without_intermediate	test	ward_and_allport	71	3.0	0.34	to_board	poldrack-single-stim	s633	False
75.459	0.1	0.759	76.218	0	PA_without_intermediate	test	ward_and_allport	82	3.0	0.759	to_hand	poldrack-single-stim	s633	False
76.219	0.1	0.398	76.617	0	PA_without_intermediate	test	ward_and_allport	89	3.0	0.398	to_board	poldrack-single-stim	s633	False
76.62	0.1	1.312	77.932	0	PA_without_intermediate	test	ward_and_allport	82	3.0	1.312	to_hand	poldrack-single-stim	s633	False
77.934	0.1	0.338	78.272	0	PA_without_intermediate	test	ward_and_allport	71	3.0	0.338	to_board	poldrack-single-stim	s633	False
78.278	1.0	2.408	78.277	0	PA_without_intermediate	test	ward_and_allport	-1	3.0	n/a	feedback	poldrack-single-stim	s633	False
80.689	4.386	4.386	85.075	1	PA_with_intermediate	test	ward_and_allport	89	4.0	4.386	to_hand	poldrack-single-stim	s633	False
85.077	0.1	0.347	85.424	0	PA_with_intermediate	test	ward_and_allport	82	4.0	0.347	to_board	poldrack-single-stim	s633	False
85.427	0.1	1.559	86.986	0	PA_with_intermediate	test	ward_and_allport	89	4.0	1.559	to_hand	poldrack-single-stim	s633	False
86.988	0.1	0.606	87.594	0	PA_with_intermediate	test	ward_and_allport	71	4.0	0.606	to_board	poldrack-single-stim	s633	False
87.597	0.1	1.31	88.907	0	PA_with_intermediate	test	ward_and_allport	82	4.0	1.31	to_hand	poldrack-single-stim	s633	False
88.908	0.1	0.346	89.254	0	PA_with_intermediate	test	ward_and_allport	89	4.0	0.346	to_board	poldrack-single-stim	s633	False
89.26	1.0	2.816	89.259	0	PA_with_intermediate	test	ward_and_allport	-1	4.0	n/a	feedback	poldrack-single-stim	s633	False
92.08	3.581	3.581	95.661	1	PA_without_intermediate	test	ward_and_allport	71	5.0	3.581	to_hand	poldrack-single-stim	s633	False
95.662	0.1	0.263	95.925	0	PA_without_intermediate	test	ward_and_allport	82	5.0	0.263	to_board	poldrack-single-stim	s633	False
95.929	0.1	0.561	96.49	0	PA_without_intermediate	test	ward_and_allport	71	5.0	0.561	to_hand	poldrack-single-stim	s633	False
96.491	0.1	0.41	96.901	0	PA_without_intermediate	test	ward_and_allport	82	5.0	0.41	to_board	poldrack-single-stim	s633	False
96.906	0.1	1.215	98.121	0	PA_without_intermediate	test	ward_and_allport	71	5.0	1.215	to_hand	poldrack-single-stim	s633	False
98.122	0.1	0.28	98.402	0	PA_without_intermediate	test	ward_and_allport	89	5.0	0.28	to_board	poldrack-single-stim	s633	False
98.407	1.0	3.088	98.406	0	PA_without_intermediate	test	ward_and_allport	-1	5.0	n/a	feedback	poldrack-single-stim	s633	False
101.499	2.101	2.101	103.6	1	PA_without_intermediate	test	ward_and_allport	71	6.0	2.101	to_hand	poldrack-single-stim	s633	False
103.601	0.1	0.316	103.917	0	PA_without_intermediate	test	ward_and_allport	89	6.0	0.316	to_board	poldrack-single-stim	s633	False
103.922	0.1	0.462	104.384	0	PA_without_intermediate	test	ward_and_allport	71	6.0	0.462	to_hand	poldrack-single-stim	s633	False
104.386	0.1	0.484	104.87	0	PA_without_intermediate	test	ward_and_allport	82	6.0	0.484	to_board	poldrack-single-stim	s633	False
104.873	0.1	0.341	105.214	0	PA_without_intermediate	test	ward_and_allport	71	6.0	0.341	to_hand	poldrack-single-stim	s633	False
105.216	0.1	0.307	105.523	0	PA_without_intermediate	test	ward_and_allport	89	6.0	0.307	to_board	poldrack-single-stim	s633	False
105.53	1.0	2.136	105.529	0	PA_without_intermediate	test	ward_and_allport	-1	6.0	n/a	feedback	poldrack-single-stim	s633	False
107.669	1.556	1.556	109.225	1	PA_without_intermediate	test	ward_and_allport	71	7.0	1.556	to_hand	poldrack-single-stim	s633	False
109.226	0.1	0.333	109.559	0	PA_without_intermediate	test	ward_and_allport	82	7.0	0.333	to_board	poldrack-single-stim	s633	False
109.564	0.1	1.048	110.612	0	PA_without_intermediate	test	ward_and_allport	71	7.0	1.048	to_hand	poldrack-single-stim	s633	False
110.614	0.1	0.337	110.951	0	PA_without_intermediate	test	ward_and_allport	89	7.0	0.337	to_board	poldrack-single-stim	s633	False
110.956	0.1	0.467	111.423	0	PA_without_intermediate	test	ward_and_allport	71	7.0	0.467	to_hand	poldrack-single-stim	s633	False
111.425	0.1	0.318	111.743	0	PA_without_intermediate	test	ward_and_allport	82	7.0	0.318	to_board	poldrack-single-stim	s633	False
111.752	1.0	7.168	111.751	0	PA_without_intermediate	test	ward_and_allport	-1	7.0	n/a	feedback	poldrack-single-stim	s633	False
118.923	2.269	2.269	121.192	1	PA_without_intermediate	test	ward_and_allport	71	8.0	2.269	to_hand	poldrack-single-stim	s633	False
121.193	0.1	0.373	121.566	0	PA_without_intermediate	test	ward_and_allport	89	8.0	0.373	to_board	poldrack-single-stim	s633	False
121.571	0.1	0.273	121.844	0	PA_without_intermediate	test	ward_and_allport	71	8.0	0.273	to_hand	poldrack-single-stim	s633	False
121.845	0.1	0.34	122.185	0	PA_without_intermediate	test	ward_and_allport	89	8.0	0.34	to_board	poldrack-single-stim	s633	False
122.189	0.1	0.325	122.514	0	PA_without_intermediate	test	ward_and_allport	71	8.0	0.325	to_hand	poldrack-single-stim	s633	False
122.515	0.1	0.565	123.08	0	PA_without_intermediate	test	ward_and_allport	82	8.0	0.565	to_board	poldrack-single-stim	s633	False
123.089	1.0	2.816	123.088	0	PA_without_intermediate	test	ward_and_allport	-1	8.0	n/a	feedback	poldrack-single-stim	s633	False
125.91	2.586	2.586	128.496	1	PA_with_intermediate	test	ward_and_allport	71	9.0	2.586	to_hand	poldrack-single-stim	s633	False
128.498	0.1	0.347	128.845	0	PA_with_intermediate	test	ward_and_allport	82	9.0	0.347	to_board	poldrack-single-stim	s633	False
128.849	0.1	0.423	129.272	0	PA_with_intermediate	test	ward_and_allport	71	9.0	0.423	to_hand	poldrack-single-stim	s633	False
129.274	0.1	0.416	129.69	0	PA_with_intermediate	test	ward_and_allport	89	9.0	0.416	to_board	poldrack-single-stim	s633	False
129.696	0.1	1.152	130.848	0	PA_with_intermediate	test	ward_and_allport	82	9.0	1.152	to_hand	poldrack-single-stim	s633	False
130.85	0.1	0.296	131.146	0	PA_with_intermediate	test	ward_and_allport	71	9.0	0.296	to_board	poldrack-single-stim	s633	False
131.155	1.0	2.952	131.154	0	PA_with_intermediate	test	ward_and_allport	-1	9.0	n/a	feedback	poldrack-single-stim	s633	False
134.112	3.22	3.22	137.332	1	PA_with_intermediate	test	ward_and_allport	89	10.0	3.22	to_hand	poldrack-single-stim	s633	False
137.333	0.1	0.233	137.566	0	PA_with_intermediate	test	ward_and_allport	71	10.0	0.233	to_board	poldrack-single-stim	s633	False
137.572	0.1	0.614	138.186	0	PA_with_intermediate	test	ward_and_allport	89	10.0	0.614	to_hand	poldrack-single-stim	s633	False
138.188	0.1	0.274	138.462	0	PA_with_intermediate	test	ward_and_allport	82	10.0	0.274	to_board	poldrack-single-stim	s633	False
138.467	0.1	0.433	138.9	0	PA_with_intermediate	test	ward_and_allport	71	10.0	0.433	to_hand	poldrack-single-stim	s633	False
138.901	0.1	0.344	139.245	0	PA_with_intermediate	test	ward_and_allport	89	10.0	0.344	to_board	poldrack-single-stim	s633	False
139.251	1.0	2.136	139.25	0	PA_with_intermediate	test	ward_and_allport	-1	10.0	n/a	feedback	poldrack-single-stim	s633	False
141.393	2.918	2.918	144.311	1	PA_without_intermediate	test	ward_and_allport	82	11.0	2.918	to_hand	poldrack-single-stim	s633	False
144.313	0.1	0.306	144.619	0	PA_without_intermediate	test	ward_and_allport	89	11.0	0.306	to_board	poldrack-single-stim	s633	False
144.625	0.1	1.605	146.23	0	PA_without_intermediate	test	ward_and_allport	82	11.0	1.605	to_hand	poldrack-single-stim	s633	False
146.232	0.1	0.302	146.534	0	PA_without_intermediate	test	ward_and_allport	71	11.0	0.302	to_board	poldrack-single-stim	s633	False
146.54	0.1	0.518	147.058	0	PA_without_intermediate	test	ward_and_allport	82	11.0	0.518	to_hand	poldrack-single-stim	s633	False
147.059	0.1	0.306	147.365	0	PA_without_intermediate	test	ward_and_allport	89	11.0	0.306	to_board	poldrack-single-stim	s633	False
147.374	1.0	2.68	147.373	0	PA_without_intermediate	test	ward_and_allport	-1	11.0	n/a	feedback	poldrack-single-stim	s633	False
150.058	2.134	2.134	152.192	1	PA_without_intermediate	test	ward_and_allport	82	12.0	2.134	to_hand	poldrack-single-stim	s633	False
152.194	0.1	0.304	152.498	0	PA_without_intermediate	test	ward_and_allport	89	12.0	0.304	to_board	poldrack-single-stim	s633	False
152.501	0.1	0.59	153.091	0	PA_without_intermediate	test	ward_and_allport	82	12.0	0.59	to_hand	poldrack-single-stim	s633	False
153.092	0.1	0.405	153.497	0	PA_without_intermediate	test	ward_and_allport	89	12.0	0.405	to_board	poldrack-single-stim	s633	False
153.502	0.1	1.175	154.677	0	PA_without_intermediate	test	ward_and_allport	82	12.0	1.175	to_hand	poldrack-single-stim	s633	False
154.679	0.1	0.273	154.952	0	PA_without_intermediate	test	ward_and_allport	71	12.0	0.273	to_board	poldrack-single-stim	s633	False
154.961	1.0	3.088	154.96	0	PA_without_intermediate	test	ward_and_allport	-1	12.0	n/a	feedback	poldrack-single-stim	s633	False
158.052	2.33	2.33	160.382	1	PA_with_intermediate	test	ward_and_allport	89	13.0	2.33	to_hand	poldrack-single-stim	s633	False
160.384	0.1	0.28	160.664	0	PA_with_intermediate	test	ward_and_allport	82	13.0	0.28	to_board	poldrack-single-stim	s633	False
160.669	0.1	0.825	161.494	0	PA_with_intermediate	test	ward_and_allport	89	13.0	0.825	to_hand	poldrack-single-stim	s633	False
161.494	0.1	0.368	161.862	0	PA_with_intermediate	test	ward_and_allport	71	13.0	0.368	to_board	poldrack-single-stim	s633	False
161.866	0.1	0.724	162.59	0	PA_with_intermediate	test	ward_and_allport	82	13.0	0.724	to_hand	poldrack-single-stim	s633	False
162.591	0.1	0.389	162.98	0	PA_with_intermediate	test	ward_and_allport	71	13.0	0.389	to_board	poldrack-single-stim	s633	False
162.988	1.0	2.0	162.987	0	PA_with_intermediate	test	ward_and_allport	-1	13.0	n/a	feedback	poldrack-single-stim	s633	False
164.994	2.444	2.444	167.438	1	PA_without_intermediate	test	ward_and_allport	71	14.0	2.444	to_hand	poldrack-single-stim	s633	False
167.44	0.1	0.376	167.816	0	PA_without_intermediate	test	ward_and_allport	82	14.0	0.376	to_board	poldrack-single-stim	s633	False
167.821	0.1	1.081	168.902	0	PA_without_intermediate	test	ward_and_allport	71	14.0	1.081	to_hand	poldrack-single-stim	s633	False
168.904	0.1	0.385	169.289	0	PA_without_intermediate	test	ward_and_allport	89	14.0	0.385	to_board	poldrack-single-stim	s633	False
169.296	0.1	0.59	169.886	0	PA_without_intermediate	test	ward_and_allport	71	14.0	0.59	to_hand	poldrack-single-stim	s633	False
169.888	0.1	0.358	170.246	0	PA_without_intermediate	test	ward_and_allport	82	14.0	0.358	to_board	poldrack-single-stim	s633	False
170.256	1.0	2.0	170.255	0	PA_without_intermediate	test	ward_and_allport	-1	14.0	n/a	feedback	poldrack-single-stim	s633	False
177.265	1.363	1.363	178.628	1	PA_without_intermediate	test	ward_and_allport	89	15.0	1.363	to_hand	poldrack-single-stim	s633	False
178.63	0.1	0.225	178.855	0	PA_without_intermediate	test	ward_and_allport	82	15.0	0.225	to_board	poldrack-single-stim	s633	False
178.862	0.1	0.857	179.719	0	PA_without_intermediate	test	ward_and_allport	89	15.0	0.857	to_hand	poldrack-single-stim	s633	False
179.72	0.1	0.314	180.034	0	PA_without_intermediate	test	ward_and_allport	71	15.0	0.314	to_board	poldrack-single-stim	s633	False
180.039	0.1	0.634	180.673	0	PA_without_intermediate	test	ward_and_allport	89	15.0	0.634	to_hand	poldrack-single-stim	s633	False
180.675	0.1	0.832	181.507	0	PA_without_intermediate	test	ward_and_allport	82	15.0	0.832	to_board	poldrack-single-stim	s633	False
181.514	1.0	2.0	181.513	0	PA_without_intermediate	test	ward_and_allport	-1	15.0	n/a	feedback	poldrack-single-stim	s633	False
183.519	1.827	1.827	185.346	1	PA_with_intermediate	test	ward_and_allport	89	16.0	1.827	to_hand	poldrack-single-stim	s633	False
185.349	0.1	0.442	185.791	0	PA_with_intermediate	test	ward_and_allport	71	16.0	0.442	to_board	poldrack-single-stim	s633	False
185.802	0.1	0.396	186.198	0	PA_with_intermediate	test	ward_and_allport	89	16.0	0.396	to_hand	poldrack-single-stim	s633	False
186.199	0.1	0.546	186.745	0	PA_with_intermediate	test	ward_and_allport	82	16.0	0.546	to_board	poldrack-single-stim	s633	False
186.752	0.1	0.468	187.22	0	PA_with_intermediate	test	ward_and_allport	71	16.0	0.468	to_hand	poldrack-single-stim	s633	False
187.222	0.1	0.365	187.587	0	PA_with_intermediate	test	ward_and_allport	89	16.0	0.365	to_board	poldrack-single-stim	s633	False
187.6	1.0	2.544	187.599	0	PA_with_intermediate	test	ward_and_allport	-1	16.0	n/a	feedback	poldrack-single-stim	s633	False
190.151	1.605	1.605	191.756	1	PA_without_intermediate	test	ward_and_allport	82	17.0	1.605	to_hand	poldrack-single-stim	s633	False
191.758	0.1	0.989	192.747	0	PA_without_intermediate	test	ward_and_allport	89	17.0	0.989	to_board	poldrack-single-stim	s633	False
192.751	0.1	1.615	194.366	0	PA_without_intermediate	test	ward_and_allport	82	17.0	1.615	to_hand	poldrack-single-stim	s633	False
194.368	0.1	1.007	195.375	0	PA_without_intermediate	test	ward_and_allport	89	17.0	1.007	to_board	poldrack-single-stim	s633	False
195.382	0.1	0.942	196.324	0	PA_without_intermediate	test	ward_and_allport	82	17.0	0.942	to_hand	poldrack-single-stim	s633	False
196.325	0.1	0.27	196.595	0	PA_without_intermediate	test	ward_and_allport	71	17.0	0.27	to_board	poldrack-single-stim	s633	False
196.608	1.0	2.272	196.607	0	PA_without_intermediate	test	ward_and_allport	-1	17.0	n/a	feedback	poldrack-single-stim	s633	False
198.885	1.426	1.426	200.311	1	PA_with_intermediate	test	ward_and_allport	82	18.0	1.426	to_hand	poldrack-single-stim	s633	False
200.312	0.1	0.856	201.168	0	PA_with_intermediate	test	ward_and_allport	71	18.0	0.856	to_board	poldrack-single-stim	s633	False
201.177	0.1	1.025	202.202	0	PA_with_intermediate	test	ward_and_allport	82	18.0	1.025	to_hand	poldrack-single-stim	s633	False
202.202	0.1	0.324	202.526	0	PA_with_intermediate	test	ward_and_allport	89	18.0	0.324	to_board	poldrack-single-stim	s633	False
202.534	0.1	0.353	202.887	0	PA_with_intermediate	test	ward_and_allport	71	18.0	0.353	to_hand	poldrack-single-stim	s633	False
202.889	0.1	0.345	203.234	0	PA_with_intermediate	test	ward_and_allport	89	18.0	0.345	to_board	poldrack-single-stim	s633	False
203.24	1.0	4.04	203.239	0	PA_with_intermediate	test	ward_and_allport	-1	18.0	n/a	feedback	poldrack-single-stim	s633	False
207.286	1.435	1.435	208.721	1	PA_with_intermediate	test	ward_and_allport	71	19.0	1.435	to_hand	poldrack-single-stim	s633	False
208.723	0.1	0.937	209.66	0	PA_with_intermediate	test	ward_and_allport	82	19.0	0.937	to_board	poldrack-single-stim	s633	False
209.669	0.1	0.495	210.164	0	PA_with_intermediate	test	ward_and_allport	71	19.0	0.495	to_hand	poldrack-single-stim	s633	False
210.165	0.1	0.579	210.744	0	PA_with_intermediate	test	ward_and_allport	89	19.0	0.579	to_board	poldrack-single-stim	s633	False
210.751	0.1	2.0	212.751	0	PA_with_intermediate	test	ward_and_allport	89	19.0	2.0	to_hand	poldrack-single-stim	s633	False
212.752	0.1	0.525	213.277	0	PA_with_intermediate	test	ward_and_allport	71	19.0	0.525	to_board	poldrack-single-stim	s633	False
213.284	0.1	0.457	213.741	0	PA_with_intermediate	test	ward_and_allport	82	19.0	0.457	to_hand	poldrack-single-stim	s633	False
213.743	0.1	0.313	214.056	0	PA_with_intermediate	test	ward_and_allport	71	19.0	0.313	to_board	poldrack-single-stim	s633	False
214.062	0.1	1.114	215.176	0	PA_with_intermediate	test	ward_and_allport	71	19.0	1.114	to_hand	poldrack-single-stim	s633	False
215.177	0.1	0.396	215.573	0	PA_with_intermediate	test	ward_and_allport	89	19.0	0.396	to_board	poldrack-single-stim	s633	False
215.58	0.1	0.34	215.92	0	PA_with_intermediate	test	ward_and_allport	71	19.0	0.34	to_hand	poldrack-single-stim	s633	False
215.92	0.1	0.379	216.299	0	PA_with_intermediate	test	ward_and_allport	82	19.0	0.379	to_board	poldrack-single-stim	s633	False
216.307	0.1	0.486	216.793	0	PA_with_intermediate	test	ward_and_allport	89	19.0	0.486	to_hand	poldrack-single-stim	s633	False
216.794	0.1	0.907	217.701	0	PA_with_intermediate	test	ward_and_allport	82	19.0	0.907	to_board	poldrack-single-stim	s633	False
217.712	1.0	2.272	217.711	0	PA_with_intermediate	test	ward_and_allport	-1	19.0	n/a	feedback	poldrack-single-stim	s633	False
219.991	2.617	2.617	222.608	1	PA_with_intermediate	test	ward_and_allport	82	20.0	2.617	to_hand	poldrack-single-stim	s633	False
222.609	0.1	0.324	222.933	0	PA_with_intermediate	test	ward_and_allport	89	20.0	0.324	to_board	poldrack-single-stim	s633	False
222.941	0.1	1.486	224.427	0	PA_with_intermediate	test	ward_and_allport	82	20.0	1.486	to_hand	poldrack-single-stim	s633	False
224.428	0.1	0.272	224.7	0	PA_with_intermediate	test	ward_and_allport	71	20.0	0.272	to_board	poldrack-single-stim	s633	False
224.708	0.1	0.656	225.364	0	PA_with_intermediate	test	ward_and_allport	89	20.0	0.656	to_hand	poldrack-single-stim	s633	False
225.365	0.1	0.412	225.777	0	PA_with_intermediate	test	ward_and_allport	71	20.0	0.412	to_board	poldrack-single-stim	s633	False
225.788	1.0	2.136	225.787	0	PA_with_intermediate	test	ward_and_allport	-1	20.0	n/a	feedback	poldrack-single-stim	s633	False
227.932	1.643	1.643	229.575	1	PA_with_intermediate	test	ward_and_allport	71	21.0	1.643	to_hand	poldrack-single-stim	s633	False
229.577	0.1	0.337	229.914	0	PA_with_intermediate	test	ward_and_allport	82	21.0	0.337	to_board	poldrack-single-stim	s633	False
229.92	0.1	0.326	230.246	0	PA_with_intermediate	test	ward_and_allport	71	21.0	0.326	to_hand	poldrack-single-stim	s633	False
230.248	0.1	0.32	230.568	0	PA_with_intermediate	test	ward_and_allport	89	21.0	0.32	to_board	poldrack-single-stim	s633	False
230.575	0.1	0.545	231.12	0	PA_with_intermediate	test	ward_and_allport	82	21.0	0.545	to_hand	poldrack-single-stim	s633	False
231.121	0.1	0.405	231.526	0	PA_with_intermediate	test	ward_and_allport	89	21.0	0.405	to_board	poldrack-single-stim	s633	False
231.535	1.0	2.0	231.534	0	PA_with_intermediate	test	ward_and_allport	-1	21.0	n/a	feedback	poldrack-single-stim	s633	False
233.542	1.734	1.734	235.276	1	PA_with_intermediate	test	ward_and_allport	89	22.0	1.734	to_hand	poldrack-single-stim	s633	False
235.278	0.1	0.436	235.714	0	PA_with_intermediate	test	ward_and_allport	82	22.0	0.436	to_board	poldrack-single-stim	s633	False
235.722	0.1	1.912	237.634	0	PA_with_intermediate	test	ward_and_allport	89	22.0	1.912	to_hand	poldrack-single-stim	s633	False
237.636	0.1	0.387	238.023	0	PA_with_intermediate	test	ward_and_allport	71	22.0	0.387	to_board	poldrack-single-stim	s633	False
238.032	0.1	0.382	238.414	0	PA_with_intermediate	test	ward_and_allport	82	22.0	0.382	to_hand	poldrack-single-stim	s633	False
238.416	0.1	0.418	238.834	0	PA_with_intermediate	test	ward_and_allport	71	22.0	0.418	to_board	poldrack-single-stim	s633	False
238.847	1.0	2.0	238.846	0	PA_with_intermediate	test	ward_and_allport	-1	22.0	n/a	feedback	poldrack-single-stim	s633	False
240.853	1.91	1.91	242.763	1	PA_without_intermediate	test	ward_and_allport	89	23.0	1.91	to_hand	poldrack-single-stim	s633	False
242.765	0.1	0.256	243.021	0	PA_without_intermediate	test	ward_and_allport	71	23.0	0.256	to_board	poldrack-single-stim	s633	False
243.03	0.1	0.69	243.72	0	PA_without_intermediate	test	ward_and_allport	89	23.0	0.69	to_hand	poldrack-single-stim	s633	False
243.721	0.1	0.307	244.028	0	PA_without_intermediate	test	ward_and_allport	71	23.0	0.307	to_board	poldrack-single-stim	s633	False
244.035	0.1	0.828	244.863	0	PA_without_intermediate	test	ward_and_allport	89	23.0	0.828	to_hand	poldrack-single-stim	s633	False
244.864	0.1	0.279	245.143	0	PA_without_intermediate	test	ward_and_allport	82	23.0	0.279	to_board	poldrack-single-stim	s633	False
245.15	1.0	2.408	245.149	0	PA_without_intermediate	test	ward_and_allport	-1	23.0	n/a	feedback	poldrack-single-stim	s633	False
247.567	2.209	2.209	249.776	1	PA_with_intermediate	test	ward_and_allport	82	24.0	2.209	to_hand	poldrack-single-stim	s633	False
249.778	0.1	0.37	250.148	0	PA_with_intermediate	test	ward_and_allport	89	24.0	0.37	to_board	poldrack-single-stim	s633	False
250.157	0.1	1.282	251.439	0	PA_with_intermediate	test	ward_and_allport	89	24.0	1.282	to_hand	poldrack-single-stim	s633	False
251.439	0.1	0.32	251.759	0	PA_with_intermediate	test	ward_and_allport	71	24.0	0.32	to_board	poldrack-single-stim	s633	False
251.77	0.1	0.429	252.199	0	PA_with_intermediate	test	ward_and_allport	82	24.0	0.429	to_hand	poldrack-single-stim	s633	False
252.2	0.1	0.401	252.601	0	PA_with_intermediate	test	ward_and_allport	89	24.0	0.401	to_board	poldrack-single-stim	s633	False
252.608	0.1	0.802	253.41	0	PA_with_intermediate	test	ward_and_allport	71	24.0	0.802	to_hand	poldrack-single-stim	s633	False
253.411	0.1	0.429	253.84	0	PA_with_intermediate	test	ward_and_allport	82	24.0	0.429	to_board	poldrack-single-stim	s633	False
253.847	1.0	3.768	253.846	0	PA_with_intermediate	test	ward_and_allport	-1	24.0	n/a	feedback	poldrack-single-stim	s633	False
257.625	2.112	2.112	259.737	1	PA_with_intermediate	test	ward_and_allport	82	25.0	2.112	to_hand	poldrack-single-stim	s633	False
259.738	0.1	0.259	259.997	0	PA_with_intermediate	test	ward_and_allport	71	25.0	0.259	to_board	poldrack-single-stim	s633	False
260.006	0.1	0.352	260.358	0	PA_with_intermediate	test	ward_and_allport	82	25.0	0.352	to_hand	poldrack-single-stim	s633	False
260.36	0.1	0.347	260.707	0	PA_with_intermediate	test	ward_and_allport	89	25.0	0.347	to_board	poldrack-single-stim	s633	False
260.721	0.1	0.341	261.062	0	PA_with_intermediate	test	ward_and_allport	71	25.0	0.341	to_hand	poldrack-single-stim	s633	False
261.064	0.1	0.334	261.398	0	PA_with_intermediate	test	ward_and_allport	89	25.0	0.334	to_board	poldrack-single-stim	s633	False
261.41	1.0	2.68	261.409	0	PA_with_intermediate	test	ward_and_allport	-1	25.0	n/a	feedback	poldrack-single-stim	s633	False
264.097	2.407	2.407	266.504	1	PA_without_intermediate	test	ward_and_allport	82	26.0	2.407	to_hand	poldrack-single-stim	s633	False
266.506	0.1	0.257	266.763	0	PA_without_intermediate	test	ward_and_allport	71	26.0	0.257	to_board	poldrack-single-stim	s633	False
266.771	0.1	1.886	268.657	0	PA_without_intermediate	test	ward_and_allport	82	26.0	1.886	to_hand	poldrack-single-stim	s633	False
268.658	0.1	0.312	268.97	0	PA_without_intermediate	test	ward_and_allport	71	26.0	0.312	to_board	poldrack-single-stim	s633	False
268.98	0.1	0.401	269.381	0	PA_without_intermediate	test	ward_and_allport	82	26.0	0.401	to_hand	poldrack-single-stim	s633	False
269.382	0.1	0.409	269.791	0	PA_without_intermediate	test	ward_and_allport	89	26.0	0.409	to_board	poldrack-single-stim	s633	False
269.804	1.0	3.224	269.803	0	PA_without_intermediate	test	ward_and_allport	-1	26.0	n/a	feedback	poldrack-single-stim	s633	False
273.037	2.543	2.543	275.58	1	PA_without_intermediate	test	ward_and_allport	89	27.0	2.543	to_hand	poldrack-single-stim	s633	False
275.581	0.1	0.339	275.92	0	PA_without_intermediate	test	ward_and_allport	71	27.0	0.339	to_board	poldrack-single-stim	s633	False
275.927	0.1	0.837	276.764	0	PA_without_intermediate	test	ward_and_allport	89	27.0	0.837	to_hand	poldrack-single-stim	s633	False
276.765	0.1	0.327	277.092	0	PA_without_intermediate	test	ward_and_allport	82	27.0	0.327	to_board	poldrack-single-stim	s633	False
277.1	0.1	0.386	277.486	0	PA_without_intermediate	test	ward_and_allport	89	27.0	0.386	to_hand	poldrack-single-stim	s633	False
277.487	0.1	0.511	277.998	0	PA_without_intermediate	test	ward_and_allport	71	27.0	0.511	to_board	poldrack-single-stim	s633	False
278.009	1.0	3.36	278.008	0	PA_without_intermediate	test	ward_and_allport	-1	27.0	n/a	feedback	poldrack-single-stim	s633	False
281.378	1.554	1.554	282.932	1	PA_without_intermediate	test	ward_and_allport	89	28.0	1.554	to_hand	poldrack-single-stim	s633	False
282.933	0.1	0.262	283.195	0	PA_without_intermediate	test	ward_and_allport	82	28.0	0.262	to_board	poldrack-single-stim	s633	False
283.201	0.1	0.517	283.718	0	PA_without_intermediate	test	ward_and_allport	89	28.0	0.517	to_hand	poldrack-single-stim	s633	False
283.719	0.1	0.279	283.998	0	PA_without_intermediate	test	ward_and_allport	82	28.0	0.279	to_board	poldrack-single-stim	s633	False
284.007	0.1	0.51	284.517	0	PA_without_intermediate	test	ward_and_allport	89	28.0	0.51	to_hand	poldrack-single-stim	s633	False
284.518	0.1	0.27	284.788	0	PA_without_intermediate	test	ward_and_allport	71	28.0	0.27	to_board	poldrack-single-stim	s633	False
284.799	1.0	2.0	284.798	0	PA_without_intermediate	test	ward_and_allport	-1	28.0	n/a	feedback	poldrack-single-stim	s633	False
286.807	1.45	1.45	288.257	1	PA_without_intermediate	test	ward_and_allport	89	29.0	1.45	to_hand	poldrack-single-stim	s633	False
288.258	0.1	0.416	288.674	0	PA_without_intermediate	test	ward_and_allport	82	29.0	0.416	to_board	poldrack-single-stim	s633	False
288.681	0.1	1.091	289.772	0	PA_without_intermediate	test	ward_and_allport	89	29.0	1.091	to_hand	poldrack-single-stim	s633	False
289.773	0.1	0.278	290.051	0	PA_without_intermediate	test	ward_and_allport	71	29.0	0.278	to_board	poldrack-single-stim	s633	False
290.057	0.1	0.337	290.394	0	PA_without_intermediate	test	ward_and_allport	89	29.0	0.337	to_hand	poldrack-single-stim	s633	False
290.395	0.1	0.297	290.692	0	PA_without_intermediate	test	ward_and_allport	82	29.0	0.297	to_board	poldrack-single-stim	s633	False
290.699	1.0	2.408	290.698	0	PA_without_intermediate	test	ward_and_allport	-1	29.0	n/a	feedback	poldrack-single-stim	s633	False
298.116	3.48	3.48	301.596	1	PA_with_intermediate	test	ward_and_allport	71	30.0	3.48	to_hand	poldrack-single-stim	s633	False
301.597	0.1	0.298	301.895	0	PA_with_intermediate	test	ward_and_allport	82	30.0	0.298	to_board	poldrack-single-stim	s633	False
301.903	0.1	0.672	302.575	0	PA_with_intermediate	test	ward_and_allport	71	30.0	0.672	to_hand	poldrack-single-stim	s633	False
302.577	0.1	0.289	302.866	0	PA_with_intermediate	test	ward_and_allport	89	30.0	0.289	to_board	poldrack-single-stim	s633	False
302.875	0.1	0.32	303.195	0	PA_with_intermediate	test	ward_and_allport	71	30.0	0.32	to_hand	poldrack-single-stim	s633	False
303.197	0.1	0.856	304.053	0	PA_with_intermediate	test	ward_and_allport	71	30.0	0.856	to_board	poldrack-single-stim	s633	False
304.061	0.1	0.483	304.544	0	PA_with_intermediate	test	ward_and_allport	82	30.0	0.483	to_hand	poldrack-single-stim	s633	False
304.546	0.1	0.461	305.007	0	PA_with_intermediate	test	ward_and_allport	71	30.0	0.461	to_board	poldrack-single-stim	s633	False
305.014	1.0	2.136	305.013	0	PA_with_intermediate	test	ward_and_allport	-1	30.0	n/a	feedback	poldrack-single-stim	s633	False
307.156	1.637	1.637	308.793	1	PA_without_intermediate	test	ward_and_allport	89	31.0	1.637	to_hand	poldrack-single-stim	s633	False
308.795	0.1	0.267	309.062	0	PA_without_intermediate	test	ward_and_allport	71	31.0	0.267	to_board	poldrack-single-stim	s633	False
309.07	0.1	0.465	309.535	0	PA_without_intermediate	test	ward_and_allport	89	31.0	0.465	to_hand	poldrack-single-stim	s633	False
309.536	0.1	0.246	309.782	0	PA_without_intermediate	test	ward_and_allport	82	31.0	0.246	to_board	poldrack-single-stim	s633	False
309.79	0.1	0.359	310.149	0	PA_without_intermediate	test	ward_and_allport	89	31.0	0.359	to_hand	poldrack-single-stim	s633	False
310.15	0.1	0.374	310.524	0	PA_without_intermediate	test	ward_and_allport	71	31.0	0.374	to_board	poldrack-single-stim	s633	False
310.534	1.0	5.128	310.533	0	PA_without_intermediate	test	ward_and_allport	-1	31.0	n/a	feedback	poldrack-single-stim	s633	False
315.668	1.541	1.541	317.209	1	PA_without_intermediate	test	ward_and_allport	71	32.0	1.541	to_hand	poldrack-single-stim	s633	False
317.209	0.1	0.254	317.463	0	PA_without_intermediate	test	ward_and_allport	89	32.0	0.254	to_board	poldrack-single-stim	s633	False
317.473	0.1	1.117	318.59	0	PA_without_intermediate	test	ward_and_allport	71	32.0	1.117	to_hand	poldrack-single-stim	s633	False
318.591	0.1	0.306	318.897	0	PA_without_intermediate	test	ward_and_allport	82	32.0	0.306	to_board	poldrack-single-stim	s633	False
318.909	0.1	0.368	319.277	0	PA_without_intermediate	test	ward_and_allport	71	32.0	0.368	to_hand	poldrack-single-stim	s633	False
319.278	0.1	0.256	319.534	0	PA_without_intermediate	test	ward_and_allport	89	32.0	0.256	to_board	poldrack-single-stim	s633	False
319.546	1.0	2.136	319.545	0	PA_without_intermediate	test	ward_and_allport	-1	32.0	n/a	feedback	poldrack-single-stim	s633	False
321.693	1.568	1.568	323.261	1	PA_without_intermediate	test	ward_and_allport	82	33.0	1.568	to_hand	poldrack-single-stim	s633	False
323.262	0.1	0.248	323.51	0	PA_without_intermediate	test	ward_and_allport	89	33.0	0.248	to_board	poldrack-single-stim	s633	False
323.518	0.1	1.152	324.67	0	PA_without_intermediate	test	ward_and_allport	82	33.0	1.152	to_hand	poldrack-single-stim	s633	False
324.671	0.1	0.282	324.953	0	PA_without_intermediate	test	ward_and_allport	71	33.0	0.282	to_board	poldrack-single-stim	s633	False
324.961	0.1	0.343	325.304	0	PA_without_intermediate	test	ward_and_allport	82	33.0	0.343	to_hand	poldrack-single-stim	s633	False
325.306	0.1	0.299	325.605	0	PA_without_intermediate	test	ward_and_allport	89	33.0	0.299	to_board	poldrack-single-stim	s633	False
325.618	1.0	5.264	325.617	0	PA_without_intermediate	test	ward_and_allport	-1	33.0	n/a	feedback	poldrack-single-stim	s633	False
330.889	2.15	2.15	333.039	1	PA_with_intermediate	test	ward_and_allport	82	34.0	2.15	to_hand	poldrack-single-stim	s633	False
333.041	0.1	0.235	333.276	0	PA_with_intermediate	test	ward_and_allport	89	34.0	0.235	to_board	poldrack-single-stim	s633	False
333.286	0.1	0.609	333.895	0	PA_with_intermediate	test	ward_and_allport	82	34.0	0.609	to_hand	poldrack-single-stim	s633	False
333.896	0.1	0.301	334.197	0	PA_with_intermediate	test	ward_and_allport	71	34.0	0.301	to_board	poldrack-single-stim	s633	False
334.21	0.1	0.33	334.54	0	PA_with_intermediate	test	ward_and_allport	89	34.0	0.33	to_hand	poldrack-single-stim	s633	False
334.542	0.1	0.284	334.826	0	PA_with_intermediate	test	ward_and_allport	82	34.0	0.284	to_board	poldrack-single-stim	s633	False
334.837	1.0	4.04	334.836	0	PA_with_intermediate	test	ward_and_allport	-1	34.0	n/a	feedback	poldrack-single-stim	s633	False
338.886	1.765	1.765	340.651	1	PA_with_intermediate	test	ward_and_allport	71	35.0	1.765	to_hand	poldrack-single-stim	s633	False
340.652	0.1	0.739	341.391	0	PA_with_intermediate	test	ward_and_allport	89	35.0	0.739	to_board	poldrack-single-stim	s633	False
341.401	0.1	0.326	341.727	0	PA_with_intermediate	test	ward_and_allport	71	35.0	0.326	to_hand	poldrack-single-stim	s633	False
341.728	0.1	0.349	342.077	0	PA_with_intermediate	test	ward_and_allport	82	35.0	0.349	to_board	poldrack-single-stim	s633	False
342.086	0.1	0.734	342.82	0	PA_with_intermediate	test	ward_and_allport	89	35.0	0.734	to_hand	poldrack-single-stim	s633	False
342.821	0.1	0.253	343.074	0	PA_with_intermediate	test	ward_and_allport	71	35.0	0.253	to_board	poldrack-single-stim	s633	False
343.088	1.0	2.136	343.087	0	PA_with_intermediate	test	ward_and_allport	-1	35.0	n/a	feedback	poldrack-single-stim	s633	False
345.235	1.469	1.469	346.704	1	PA_with_intermediate	test	ward_and_allport	82	36.0	1.469	to_hand	poldrack-single-stim	s633	False
346.705	0.1	0.291	346.996	0	PA_with_intermediate	test	ward_and_allport	89	36.0	0.291	to_board	poldrack-single-stim	s633	False
347.005	0.1	2.506	349.511	0	PA_with_intermediate	test	ward_and_allport	82	36.0	2.506	to_hand	poldrack-single-stim	s633	False
349.513	0.1	0.458	349.971	0	PA_with_intermediate	test	ward_and_allport	71	36.0	0.458	to_board	poldrack-single-stim	s633	False
349.979	0.1	0.8	350.779	0	PA_with_intermediate	test	ward_and_allport	89	36.0	0.8	to_hand	poldrack-single-stim	s633	False
350.781	0.1	0.526	351.307	0	PA_with_intermediate	test	ward_and_allport	82	36.0	0.526	to_board	poldrack-single-stim	s633	False
351.318	0.1	0.433	351.751	0	PA_with_intermediate	test	ward_and_allport	71	36.0	0.433	to_hand	poldrack-single-stim	s633	False
351.753	0.1	0.394	352.147	0	PA_with_intermediate	test	ward_and_allport	89	36.0	0.394	to_board	poldrack-single-stim	s633	False
352.159	1.0	2.408	352.158	0	PA_with_intermediate	test	ward_and_allport	-1	36.0	n/a	feedback	poldrack-single-stim	s633	False
354.577	2.569	2.569	357.146	1	PA_without_intermediate	test	ward_and_allport	89	37.0	2.569	to_hand	poldrack-single-stim	s633	False
357.147	0.1	0.211	357.358	0	PA_without_intermediate	test	ward_and_allport	71	37.0	0.211	to_board	poldrack-single-stim	s633	False
357.366	0.1	0.284	357.65	0	PA_without_intermediate	test	ward_and_allport	89	37.0	0.284	to_hand	poldrack-single-stim	s633	False
357.651	0.1	0.239	357.89	0	PA_without_intermediate	test	ward_and_allport	71	37.0	0.239	to_board	poldrack-single-stim	s633	False
357.902	0.1	0.272	358.174	0	PA_without_intermediate	test	ward_and_allport	89	37.0	0.272	to_hand	poldrack-single-stim	s633	False
358.176	0.1	0.424	358.6	0	PA_without_intermediate	test	ward_and_allport	82	37.0	0.424	to_board	poldrack-single-stim	s633	False
358.613	1.0	2.68	358.612	0	PA_without_intermediate	test	ward_and_allport	-1	37.0	n/a	feedback	poldrack-single-stim	s633	False
361.302	1.703	1.703	363.005	1	PA_with_intermediate	test	ward_and_allport	82	38.0	1.703	to_hand	poldrack-single-stim	s633	False
363.006	0.1	0.415	363.421	0	PA_with_intermediate	test	ward_and_allport	89	38.0	0.415	to_board	poldrack-single-stim	s633	False
363.429	0.1	0.97	364.399	0	PA_with_intermediate	test	ward_and_allport	82	38.0	0.97	to_hand	poldrack-single-stim	s633	False
364.4	0.1	0.325	364.725	0	PA_with_intermediate	test	ward_and_allport	71	38.0	0.325	to_board	poldrack-single-stim	s633	False
364.731	0.1	0.802	365.533	0	PA_with_intermediate	test	ward_and_allport	89	38.0	0.802	to_hand	poldrack-single-stim	s633	False
365.534	0.1	0.359	365.893	0	PA_with_intermediate	test	ward_and_allport	71	38.0	0.359	to_board	poldrack-single-stim	s633	False
365.901	1.0	4.72	365.9	0	PA_with_intermediate	test	ward_and_allport	-1	38.0	n/a	feedback	poldrack-single-stim	s633	False
370.63	1.328	1.328	371.958	1	PA_without_intermediate	test	ward_and_allport	89	39.0	1.328	to_hand	poldrack-single-stim	s633	False
371.96	0.1	0.244	372.204	0	PA_without_intermediate	test	ward_and_allport	82	39.0	0.244	to_board	poldrack-single-stim	s633	False
372.215	0.1	0.449	372.664	0	PA_without_intermediate	test	ward_and_allport	89	39.0	0.449	to_hand	poldrack-single-stim	s633	False
372.665	0.1	0.275	372.94	0	PA_without_intermediate	test	ward_and_allport	82	39.0	0.275	to_board	poldrack-single-stim	s633	False
372.949	0.1	0.343	373.292	0	PA_without_intermediate	test	ward_and_allport	89	39.0	0.343	to_hand	poldrack-single-stim	s633	False
373.294	0.1	0.246	373.54	0	PA_without_intermediate	test	ward_and_allport	71	39.0	0.246	to_board	poldrack-single-stim	s633	False
373.553	1.0	3.224	373.552	0	PA_without_intermediate	test	ward_and_allport	-1	39.0	n/a	feedback	poldrack-single-stim	s633	False
376.788	2.531	2.531	379.319	1	PA_without_intermediate	test	ward_and_allport	82	40.0	2.531	to_hand	poldrack-single-stim	s633	False
379.321	0.1	0.36	379.681	0	PA_without_intermediate	test	ward_and_allport	89	40.0	0.36	to_board	poldrack-single-stim	s633	False
379.695	0.1	0.962	380.657	0	PA_without_intermediate	test	ward_and_allport	89	40.0	0.962	to_hand	poldrack-single-stim	s633	False
380.659	0.1	0.284	380.943	0	PA_without_intermediate	test	ward_and_allport	71	40.0	0.284	to_board	poldrack-single-stim	s633	False
380.953	0.1	1.519	382.472	0	PA_without_intermediate	test	ward_and_allport	82	40.0	1.519	to_hand	poldrack-single-stim	s633	False
382.473	0.1	0.393	382.866	0	PA_without_intermediate	test	ward_and_allport	71	40.0	0.393	to_board	poldrack-single-stim	s633	False
382.877	0.1	0.939	383.816	0	PA_without_intermediate	test	ward_and_allport	82	40.0	0.939	to_hand	poldrack-single-stim	s633	False
383.816	0.1	0.258	384.074	0	PA_without_intermediate	test	ward_and_allport	89	40.0	0.258	to_board	poldrack-single-stim	s633	False
384.087	1.0	2.272	384.086	0	PA_without_intermediate	test	ward_and_allport	-1	40.0	n/a	feedback	poldrack-single-stim	s633	False
386.368	2.442	2.442	388.81	1	PA_with_intermediate	test	ward_and_allport	71	41.0	2.442	to_hand	poldrack-single-stim	s633	False
388.812	0.1	0.433	389.245	0	PA_with_intermediate	test	ward_and_allport	82	41.0	0.433	to_board	poldrack-single-stim	s633	False
389.253	0.1	1.516	390.769	0	PA_with_intermediate	test	ward_and_allport	71	41.0	1.516	to_hand	poldrack-single-stim	s633	False
390.77	0.1	2.706	393.476	0	PA_with_intermediate	test	ward_and_allport	89	41.0	2.706	to_board	poldrack-single-stim	s633	False
393.485	0.1	0.495	393.98	0	PA_with_intermediate	test	ward_and_allport	82	41.0	0.495	to_hand	poldrack-single-stim	s633	False
393.982	0.1	0.297	394.279	0	PA_with_intermediate	test	ward_and_allport	71	41.0	0.297	to_board	poldrack-single-stim	s633	False
394.291	0.1	0.272	394.563	0	PA_with_intermediate	test	ward_and_allport	89	41.0	0.272	to_hand	poldrack-single-stim	s633	False
394.564	0.1	0.268	394.832	0	PA_with_intermediate	test	ward_and_allport	82	41.0	0.268	to_board	poldrack-single-stim	s633	False
394.844	1.0	3.632	394.843	0	PA_with_intermediate	test	ward_and_allport	-1	41.0	n/a	feedback	poldrack-single-stim	s633	False
398.491	1.756	1.756	400.247	1	PA_without_intermediate	test	ward_and_allport	71	42.0	1.756	to_hand	poldrack-single-stim	s633	False
400.248	0.1	0.307	400.555	0	PA_without_intermediate	test	ward_and_allport	89	42.0	0.307	to_board	poldrack-single-stim	s633	False
400.563	0.1	0.279	400.842	0	PA_without_intermediate	test	ward_and_allport	71	42.0	0.279	to_hand	poldrack-single-stim	s633	False
400.844	0.1	0.22	401.064	0	PA_without_intermediate	test	ward_and_allport	89	42.0	0.22	to_board	poldrack-single-stim	s633	False
401.079	0.1	0.502	401.581	0	PA_without_intermediate	test	ward_and_allport	71	42.0	0.502	to_hand	poldrack-single-stim	s633	False
401.582	0.1	0.263	401.845	0	PA_without_intermediate	test	ward_and_allport	82	42.0	0.263	to_board	poldrack-single-stim	s633	False
401.859	1.0	2.408	401.858	0	PA_without_intermediate	test	ward_and_allport	-1	42.0	n/a	feedback	poldrack-single-stim	s633	False
404.276	1.252	1.252	405.528	1	PA_without_intermediate	test	ward_and_allport	82	43.0	1.252	to_hand	poldrack-single-stim	s633	False
405.53	0.1	0.327	405.857	0	PA_without_intermediate	test	ward_and_allport	71	43.0	0.327	to_board	poldrack-single-stim	s633	False
405.865	0.1	0.488	406.353	0	PA_without_intermediate	test	ward_and_allport	71	43.0	0.488	to_hand	poldrack-single-stim	s633	False
406.355	0.1	0.775	407.13	0	PA_without_intermediate	test	ward_and_allport	71	43.0	0.775	to_board	poldrack-single-stim	s633	False
407.139	0.1	0.717	407.856	0	PA_without_intermediate	test	ward_and_allport	82	43.0	0.717	to_hand	poldrack-single-stim	s633	False
407.858	0.1	0.333	408.191	0	PA_without_intermediate	test	ward_and_allport	89	43.0	0.333	to_board	poldrack-single-stim	s633	False
408.202	0.1	0.512	408.714	0	PA_without_intermediate	test	ward_and_allport	82	43.0	0.512	to_hand	poldrack-single-stim	s633	False
408.716	0.1	0.243	408.959	0	PA_without_intermediate	test	ward_and_allport	71	43.0	0.243	to_board	poldrack-single-stim	s633	False
408.972	1.0	2.0	408.971	0	PA_without_intermediate	test	ward_and_allport	-1	43.0	n/a	feedback	poldrack-single-stim	s633	False
410.978	1.23	1.23	412.208	1	PA_with_intermediate	test	ward_and_allport	71	44.0	1.23	to_hand	poldrack-single-stim	s633	False
412.21	0.1	0.194	412.404	0	PA_with_intermediate	test	ward_and_allport	89	44.0	0.194	to_board	poldrack-single-stim	s633	False
412.413	0.1	1.696	414.109	0	PA_with_intermediate	test	ward_and_allport	89	44.0	1.696	to_hand	poldrack-single-stim	s633	False
414.11	0.1	0.246	414.356	0	PA_with_intermediate	test	ward_and_allport	82	44.0	0.246	to_board	poldrack-single-stim	s633	False
414.366	0.1	0.431	414.797	0	PA_with_intermediate	test	ward_and_allport	71	44.0	0.431	to_hand	poldrack-single-stim	s633	False
414.798	0.1	0.35	415.148	0	PA_with_intermediate	test	ward_and_allport	89	44.0	0.35	to_board	poldrack-single-stim	s633	False
415.157	0.1	0.318	415.475	0	PA_with_intermediate	test	ward_and_allport	82	44.0	0.318	to_hand	poldrack-single-stim	s633	False
415.476	0.1	0.337	415.813	0	PA_with_intermediate	test	ward_and_allport	89	44.0	0.337	to_board	poldrack-single-stim	s633	False
415.825	1.0	2.0	415.824	0	PA_with_intermediate	test	ward_and_allport	-1	44.0	n/a	feedback	poldrack-single-stim	s633	False
422.841	1.67	1.67	424.511	1	PA_with_intermediate	test	ward_and_allport	89	45.0	1.67	to_hand	poldrack-single-stim	s633	False
424.513	0.1	0.337	424.85	0	PA_with_intermediate	test	ward_and_allport	82	45.0	0.337	to_board	poldrack-single-stim	s633	False
424.864	0.1	1.23	426.094	0	PA_with_intermediate	test	ward_and_allport	89	45.0	1.23	to_hand	poldrack-single-stim	s633	False
426.096	0.1	0.247	426.343	0	PA_with_intermediate	test	ward_and_allport	71	45.0	0.247	to_board	poldrack-single-stim	s633	False
426.357	0.1	0.891	427.248	0	PA_with_intermediate	test	ward_and_allport	82	45.0	0.891	to_hand	poldrack-single-stim	s633	False
427.249	0.1	0.26	427.509	0	PA_with_intermediate	test	ward_and_allport	89	45.0	0.26	to_board	poldrack-single-stim	s633	False
427.52	1.0	2.0	427.519	0	PA_with_intermediate	test	ward_and_allport	-1	45.0	n/a	feedback	poldrack-single-stim	s633	False
429.532	1.636	1.636	431.168	1	PA_with_intermediate	test	ward_and_allport	89	46.0	1.636	to_hand	poldrack-single-stim	s633	False
431.169	0.1	0.321	431.49	0	PA_with_intermediate	test	ward_and_allport	71	46.0	0.321	to_board	poldrack-single-stim	s633	False
431.497	0.1	0.277	431.774	0	PA_with_intermediate	test	ward_and_allport	89	46.0	0.277	to_hand	poldrack-single-stim	s633	False
431.776	0.1	0.253	432.029	0	PA_with_intermediate	test	ward_and_allport	82	46.0	0.253	to_board	poldrack-single-stim	s633	False
432.04	0.1	0.595	432.635	0	PA_with_intermediate	test	ward_and_allport	71	46.0	0.595	to_hand	poldrack-single-stim	s633	False
432.636	0.1	0.275	432.911	0	PA_with_intermediate	test	ward_and_allport	82	46.0	0.275	to_board	poldrack-single-stim	s633	False
432.926	1.0	2.408	432.925	0	PA_with_intermediate	test	ward_and_allport	-1	46.0	n/a	feedback	poldrack-single-stim	s633	False
435.347	1.461	1.461	436.808	1	PA_without_intermediate	test	ward_and_allport	71	47.0	1.461	to_hand	poldrack-single-stim	s633	False
436.809	0.1	0.472	437.281	0	PA_without_intermediate	test	ward_and_allport	82	47.0	0.472	to_board	poldrack-single-stim	s633	False
437.292	0.1	1.273	438.565	0	PA_without_intermediate	test	ward_and_allport	71	47.0	1.273	to_hand	poldrack-single-stim	s633	False
438.565	0.1	0.343	438.908	0	PA_without_intermediate	test	ward_and_allport	82	47.0	0.343	to_board	poldrack-single-stim	s633	False
438.919	0.1	0.458	439.377	0	PA_without_intermediate	test	ward_and_allport	71	47.0	0.458	to_hand	poldrack-single-stim	s633	False
439.379	0.1	0.332	439.711	0	PA_without_intermediate	test	ward_and_allport	89	47.0	0.332	to_board	poldrack-single-stim	s633	False
439.723	1.0	2.816	439.722	0	PA_without_intermediate	test	ward_and_allport	-1	47.0	n/a	feedback	poldrack-single-stim	s633	False
