onset	duration	block_duration	movement_onset	planning	condition	exp_stage	experiment_exp_id	key_press	problem_id	response_time	trial_id	trial_type	worker_id	junk
3.012	5.065	5.065	8.077	1	UA_with_intermediate	practice	ward_and_allport	71	0.0	5.065	to_hand	poldrack-single-stim	s590	False
8.079	0.1	1.9	9.979	0	UA_with_intermediate	practice	ward_and_allport	82	0.0	1.9	to_board	poldrack-single-stim	s590	False
9.981	0.1	1.685	11.666	0	UA_with_intermediate	practice	ward_and_allport	71	0.0	1.685	to_hand	poldrack-single-stim	s590	False
11.668	0.1	0.837	12.505	0	UA_with_intermediate	practice	ward_and_allport	89	0.0	0.837	to_board	poldrack-single-stim	s590	False
12.506	0.1	0.675	13.181	0	UA_with_intermediate	practice	ward_and_allport	82	0.0	0.675	to_hand	poldrack-single-stim	s590	False
13.182	0.1	0.493	13.675	0	UA_with_intermediate	practice	ward_and_allport	89	0.0	0.493	to_board	poldrack-single-stim	s590	False
13.68	1.0	2.5	13.679	0	UA_with_intermediate	practice	ward_and_allport	-1	0.0	n/a	feedback	poldrack-single-stim	s590	False
16.183	3.79	3.79	19.973	1	UA_with_intermediate	practice	ward_and_allport	89	1.0	3.79	to_hand	poldrack-single-stim	s590	False
19.975	0.1	1.047	21.022	0	UA_with_intermediate	practice	ward_and_allport	82	1.0	1.047	to_board	poldrack-single-stim	s590	False
21.024	0.1	0.668	21.692	0	UA_with_intermediate	practice	ward_and_allport	71	1.0	0.668	to_hand	poldrack-single-stim	s590	False
21.694	0.1	0.477	22.171	0	UA_with_intermediate	practice	ward_and_allport	89	1.0	0.477	to_board	poldrack-single-stim	s590	False
22.173	0.1	0.778	22.951	0	UA_with_intermediate	practice	ward_and_allport	82	1.0	0.778	to_hand	poldrack-single-stim	s590	False
22.952	0.1	0.436	23.388	0	UA_with_intermediate	practice	ward_and_allport	89	1.0	0.436	to_board	poldrack-single-stim	s590	False
23.391	1.0	2.1	23.39	0	UA_with_intermediate	practice	ward_and_allport	-1	1.0	n/a	feedback	poldrack-single-stim	s590	False
25.494	2.386	2.386	27.88	1	UA_without_intermediate	practice	ward_and_allport	82	2.0	2.386	to_hand	poldrack-single-stim	s590	False
27.881	0.1	0.617	28.498	0	UA_without_intermediate	practice	ward_and_allport	89	2.0	0.617	to_board	poldrack-single-stim	s590	False
28.501	0.1	1.992	30.493	0	UA_without_intermediate	practice	ward_and_allport	71	2.0	1.992	to_hand	poldrack-single-stim	s590	False
30.495	0.1	0.387	30.882	0	UA_without_intermediate	practice	ward_and_allport	89	2.0	0.387	to_board	poldrack-single-stim	s590	False
30.885	0.1	0.749	31.634	0	UA_without_intermediate	practice	ward_and_allport	71	2.0	0.749	to_hand	poldrack-single-stim	s590	False
31.636	0.1	0.353	31.989	0	UA_without_intermediate	practice	ward_and_allport	89	2.0	0.353	to_board	poldrack-single-stim	s590	False
31.996	1.0	2.2	31.995	0	UA_without_intermediate	practice	ward_and_allport	-1	2.0	n/a	feedback	poldrack-single-stim	s590	False
34.197	2.344	2.344	36.541	1	UA_without_intermediate	practice	ward_and_allport	71	3.0	2.344	to_hand	poldrack-single-stim	s590	False
36.543	0.1	0.632	37.175	0	UA_without_intermediate	practice	ward_and_allport	89	3.0	0.632	to_board	poldrack-single-stim	s590	False
37.177	0.1	0.586	37.763	0	UA_without_intermediate	practice	ward_and_allport	82	3.0	0.586	to_hand	poldrack-single-stim	s590	False
37.764	0.1	0.658	38.422	0	UA_without_intermediate	practice	ward_and_allport	89	3.0	0.658	to_board	poldrack-single-stim	s590	False
38.425	0.1	0.799	39.224	0	UA_without_intermediate	practice	ward_and_allport	71	3.0	0.799	to_hand	poldrack-single-stim	s590	False
39.224	0.1	0.487	39.711	0	UA_without_intermediate	practice	ward_and_allport	89	3.0	0.487	to_board	poldrack-single-stim	s590	False
39.715	1.0	2.0	39.714	0	UA_without_intermediate	practice	ward_and_allport	-1	3.0	n/a	feedback	poldrack-single-stim	s590	False
43.722	4.23	4.23	47.952	1	PA_with_intermediate	test	ward_and_allport	89	0.0	4.23	to_hand	poldrack-single-stim	s590	False
47.953	0.1	1.643	49.596	0	PA_with_intermediate	test	ward_and_allport	71	0.0	1.643	to_board	poldrack-single-stim	s590	False
49.598	0.1	1.294	50.892	0	PA_with_intermediate	test	ward_and_allport	89	0.0	1.294	to_hand	poldrack-single-stim	s590	False
50.893	0.1	0.393	51.286	0	PA_with_intermediate	test	ward_and_allport	82	0.0	0.393	to_board	poldrack-single-stim	s590	False
51.288	0.1	0.735	52.023	0	PA_with_intermediate	test	ward_and_allport	71	0.0	0.735	to_hand	poldrack-single-stim	s590	False
52.025	0.1	0.459	52.484	0	PA_with_intermediate	test	ward_and_allport	82	0.0	0.459	to_board	poldrack-single-stim	s590	False
52.488	1.0	3.768	52.487	0	PA_with_intermediate	test	ward_and_allport	-1	0.0	n/a	feedback	poldrack-single-stim	s590	False
56.258	4.067	4.067	60.325	1	PA_with_intermediate	test	ward_and_allport	89	1.0	4.067	to_hand	poldrack-single-stim	s590	False
60.327	0.1	1.345	61.672	0	PA_with_intermediate	test	ward_and_allport	71	1.0	1.345	to_board	poldrack-single-stim	s590	False
61.675	0.1	0.851	62.526	0	PA_with_intermediate	test	ward_and_allport	89	1.0	0.851	to_hand	poldrack-single-stim	s590	False
62.527	0.1	0.436	62.963	0	PA_with_intermediate	test	ward_and_allport	82	1.0	0.436	to_board	poldrack-single-stim	s590	False
62.965	0.1	1.472	64.437	0	PA_with_intermediate	test	ward_and_allport	71	1.0	1.472	to_hand	poldrack-single-stim	s590	False
64.438	0.1	0.37	64.808	0	PA_with_intermediate	test	ward_and_allport	89	1.0	0.37	to_board	poldrack-single-stim	s590	False
64.813	1.0	2.68	64.812	0	PA_with_intermediate	test	ward_and_allport	-1	1.0	n/a	feedback	poldrack-single-stim	s590	False
67.496	4.347	4.347	71.843	1	PA_without_intermediate	test	ward_and_allport	71	2.0	4.347	to_hand	poldrack-single-stim	s590	False
71.845	0.1	0.403	72.248	0	PA_without_intermediate	test	ward_and_allport	89	2.0	0.403	to_board	poldrack-single-stim	s590	False
72.25	0.1	1.481	73.731	0	PA_without_intermediate	test	ward_and_allport	71	2.0	1.481	to_hand	poldrack-single-stim	s590	False
73.733	0.1	0.395	74.128	0	PA_without_intermediate	test	ward_and_allport	89	2.0	0.395	to_board	poldrack-single-stim	s590	False
74.131	0.1	1.722	75.853	0	PA_without_intermediate	test	ward_and_allport	71	2.0	1.722	to_hand	poldrack-single-stim	s590	False
75.854	0.1	0.384	76.238	0	PA_without_intermediate	test	ward_and_allport	82	2.0	0.384	to_board	poldrack-single-stim	s590	False
76.244	1.0	3.224	76.243	0	PA_without_intermediate	test	ward_and_allport	-1	2.0	n/a	feedback	poldrack-single-stim	s590	False
79.471	3.223	3.223	82.694	1	PA_without_intermediate	test	ward_and_allport	71	3.0	3.223	to_hand	poldrack-single-stim	s590	False
82.695	0.1	0.598	83.293	0	PA_without_intermediate	test	ward_and_allport	89	3.0	0.598	to_board	poldrack-single-stim	s590	False
83.296	0.1	1.435	84.731	0	PA_without_intermediate	test	ward_and_allport	71	3.0	1.435	to_hand	poldrack-single-stim	s590	False
84.733	0.1	0.351	85.084	0	PA_without_intermediate	test	ward_and_allport	89	3.0	0.351	to_board	poldrack-single-stim	s590	False
85.087	0.1	1.084	86.171	0	PA_without_intermediate	test	ward_and_allport	71	3.0	1.084	to_hand	poldrack-single-stim	s590	False
86.173	0.1	0.377	86.55	0	PA_without_intermediate	test	ward_and_allport	82	3.0	0.377	to_board	poldrack-single-stim	s590	False
86.556	1.0	3.36	86.555	0	PA_without_intermediate	test	ward_and_allport	-1	3.0	n/a	feedback	poldrack-single-stim	s590	False
89.919	4.349	4.349	94.268	1	PA_without_intermediate	test	ward_and_allport	82	4.0	4.349	to_hand	poldrack-single-stim	s590	False
94.269	0.1	0.897	95.166	0	PA_without_intermediate	test	ward_and_allport	89	4.0	0.897	to_board	poldrack-single-stim	s590	False
95.169	0.1	1.038	96.207	0	PA_without_intermediate	test	ward_and_allport	82	4.0	1.038	to_hand	poldrack-single-stim	s590	False
96.208	0.1	0.535	96.743	0	PA_without_intermediate	test	ward_and_allport	71	4.0	0.535	to_board	poldrack-single-stim	s590	False
96.746	0.1	1.196	97.942	0	PA_without_intermediate	test	ward_and_allport	82	4.0	1.196	to_hand	poldrack-single-stim	s590	False
97.943	0.1	0.396	98.339	0	PA_without_intermediate	test	ward_and_allport	89	4.0	0.396	to_board	poldrack-single-stim	s590	False
98.347	1.0	2.0	98.346	0	PA_without_intermediate	test	ward_and_allport	-1	4.0	n/a	feedback	poldrack-single-stim	s590	False
100.351	7.342	7.342	107.693	1	PA_without_intermediate	test	ward_and_allport	82	5.0	7.342	to_hand	poldrack-single-stim	s590	False
107.694	0.1	0.761	108.455	0	PA_without_intermediate	test	ward_and_allport	71	5.0	0.761	to_board	poldrack-single-stim	s590	False
108.459	0.1	1.007	109.466	0	PA_without_intermediate	test	ward_and_allport	82	5.0	1.007	to_hand	poldrack-single-stim	s590	False
109.467	0.1	0.506	109.973	0	PA_without_intermediate	test	ward_and_allport	89	5.0	0.506	to_board	poldrack-single-stim	s590	False
109.976	0.1	1.619	111.595	0	PA_without_intermediate	test	ward_and_allport	89	5.0	1.619	to_hand	poldrack-single-stim	s590	False
111.597	0.1	1.133	112.73	0	PA_without_intermediate	test	ward_and_allport	82	5.0	1.133	to_board	poldrack-single-stim	s590	False
112.733	0.1	0.67	113.403	0	PA_without_intermediate	test	ward_and_allport	71	5.0	0.67	to_hand	poldrack-single-stim	s590	False
113.405	0.1	0.403	113.808	0	PA_without_intermediate	test	ward_and_allport	89	5.0	0.403	to_board	poldrack-single-stim	s590	False
113.811	0.1	1.278	115.089	0	PA_without_intermediate	test	ward_and_allport	82	5.0	1.278	to_hand	poldrack-single-stim	s590	False
115.091	0.1	0.385	115.476	0	PA_without_intermediate	test	ward_and_allport	89	5.0	0.385	to_board	poldrack-single-stim	s590	False
115.48	0.1	1.056	116.536	0	PA_without_intermediate	test	ward_and_allport	82	5.0	1.056	to_hand	poldrack-single-stim	s590	False
116.538	0.1	0.34	116.878	0	PA_without_intermediate	test	ward_and_allport	71	5.0	0.34	to_board	poldrack-single-stim	s590	False
116.884	1.0	2.408	116.883	0	PA_without_intermediate	test	ward_and_allport	-1	5.0	n/a	feedback	poldrack-single-stim	s590	False
119.296	4.448	4.448	123.744	1	PA_with_intermediate	test	ward_and_allport	71	6.0	4.448	to_hand	poldrack-single-stim	s590	False
123.744	0.1	0.614	124.358	0	PA_with_intermediate	test	ward_and_allport	89	6.0	0.614	to_board	poldrack-single-stim	s590	False
124.362	0.1	0.833	125.195	0	PA_with_intermediate	test	ward_and_allport	71	6.0	0.833	to_hand	poldrack-single-stim	s590	False
125.196	0.1	0.359	125.555	0	PA_with_intermediate	test	ward_and_allport	82	6.0	0.359	to_board	poldrack-single-stim	s590	False
125.559	0.1	0.449	126.008	0	PA_with_intermediate	test	ward_and_allport	89	6.0	0.449	to_hand	poldrack-single-stim	s590	False
126.009	0.1	0.277	126.286	0	PA_with_intermediate	test	ward_and_allport	82	6.0	0.277	to_board	poldrack-single-stim	s590	False
126.292	1.0	2.136	126.291	0	PA_with_intermediate	test	ward_and_allport	-1	6.0	n/a	feedback	poldrack-single-stim	s590	False
128.432	4.936	4.936	133.368	1	PA_without_intermediate	test	ward_and_allport	89	7.0	4.936	to_hand	poldrack-single-stim	s590	False
133.369	0.1	0.663	134.032	0	PA_without_intermediate	test	ward_and_allport	71	7.0	0.663	to_board	poldrack-single-stim	s590	False
134.036	0.1	0.868	134.904	0	PA_without_intermediate	test	ward_and_allport	89	7.0	0.868	to_hand	poldrack-single-stim	s590	False
134.905	0.1	0.454	135.359	0	PA_without_intermediate	test	ward_and_allport	82	7.0	0.454	to_board	poldrack-single-stim	s590	False
135.363	0.1	0.813	136.176	0	PA_without_intermediate	test	ward_and_allport	89	7.0	0.813	to_hand	poldrack-single-stim	s590	False
136.177	0.1	0.643	136.82	0	PA_without_intermediate	test	ward_and_allport	71	7.0	0.643	to_board	poldrack-single-stim	s590	False
136.826	1.0	5.128	136.825	0	PA_without_intermediate	test	ward_and_allport	-1	7.0	n/a	feedback	poldrack-single-stim	s590	False
141.958	3.441	3.441	145.399	1	PA_without_intermediate	test	ward_and_allport	89	8.0	3.441	to_hand	poldrack-single-stim	s590	False
145.401	0.1	0.62	146.021	0	PA_without_intermediate	test	ward_and_allport	82	8.0	0.62	to_board	poldrack-single-stim	s590	False
146.026	0.1	1.309	147.335	0	PA_without_intermediate	test	ward_and_allport	89	8.0	1.309	to_hand	poldrack-single-stim	s590	False
147.337	0.1	0.454	147.791	0	PA_without_intermediate	test	ward_and_allport	82	8.0	0.454	to_board	poldrack-single-stim	s590	False
147.796	0.1	0.614	148.41	0	PA_without_intermediate	test	ward_and_allport	89	8.0	0.614	to_hand	poldrack-single-stim	s590	False
148.412	0.1	0.416	148.828	0	PA_without_intermediate	test	ward_and_allport	71	8.0	0.416	to_board	poldrack-single-stim	s590	False
148.833	1.0	2.136	148.832	0	PA_without_intermediate	test	ward_and_allport	-1	8.0	n/a	feedback	poldrack-single-stim	s590	False
150.973	3.983	3.983	154.956	1	PA_without_intermediate	test	ward_and_allport	89	9.0	3.983	to_hand	poldrack-single-stim	s590	False
154.958	0.1	0.549	155.507	0	PA_without_intermediate	test	ward_and_allport	71	9.0	0.549	to_board	poldrack-single-stim	s590	False
155.511	0.1	0.71	156.221	0	PA_without_intermediate	test	ward_and_allport	89	9.0	0.71	to_hand	poldrack-single-stim	s590	False
156.223	0.1	0.975	157.198	0	PA_without_intermediate	test	ward_and_allport	82	9.0	0.975	to_board	poldrack-single-stim	s590	False
157.202	0.1	0.83	158.032	0	PA_without_intermediate	test	ward_and_allport	89	9.0	0.83	to_hand	poldrack-single-stim	s590	False
158.034	0.1	0.574	158.608	0	PA_without_intermediate	test	ward_and_allport	71	9.0	0.574	to_board	poldrack-single-stim	s590	False
158.616	1.0	5.264	158.615	0	PA_without_intermediate	test	ward_and_allport	-1	9.0	n/a	feedback	poldrack-single-stim	s590	False
163.885	6.489	6.489	170.374	1	PA_with_intermediate	test	ward_and_allport	82	10.0	6.489	to_hand	poldrack-single-stim	s590	False
170.375	0.1	0.533	170.908	0	PA_with_intermediate	test	ward_and_allport	71	10.0	0.533	to_board	poldrack-single-stim	s590	False
170.914	0.1	0.912	171.826	0	PA_with_intermediate	test	ward_and_allport	82	10.0	0.912	to_hand	poldrack-single-stim	s590	False
171.828	0.1	0.366	172.194	0	PA_with_intermediate	test	ward_and_allport	89	10.0	0.366	to_board	poldrack-single-stim	s590	False
172.199	0.1	1.165	173.364	0	PA_with_intermediate	test	ward_and_allport	71	10.0	1.165	to_hand	poldrack-single-stim	s590	False
173.366	0.1	0.324	173.69	0	PA_with_intermediate	test	ward_and_allport	89	10.0	0.324	to_board	poldrack-single-stim	s590	False
173.697	1.0	4.04	173.696	0	PA_with_intermediate	test	ward_and_allport	-1	10.0	n/a	feedback	poldrack-single-stim	s590	False
177.741	5.82	5.82	183.561	1	PA_with_intermediate	test	ward_and_allport	82	11.0	5.82	to_hand	poldrack-single-stim	s590	False
183.562	0.1	0.375	183.937	0	PA_with_intermediate	test	ward_and_allport	89	11.0	0.375	to_board	poldrack-single-stim	s590	False
183.942	0.1	0.807	184.749	0	PA_with_intermediate	test	ward_and_allport	82	11.0	0.807	to_hand	poldrack-single-stim	s590	False
184.75	0.1	0.428	185.178	0	PA_with_intermediate	test	ward_and_allport	71	11.0	0.428	to_board	poldrack-single-stim	s590	False
185.184	0.1	0.812	185.996	0	PA_with_intermediate	test	ward_and_allport	89	11.0	0.812	to_hand	poldrack-single-stim	s590	False
185.996	0.1	0.464	186.46	0	PA_with_intermediate	test	ward_and_allport	71	11.0	0.464	to_board	poldrack-single-stim	s590	False
186.467	1.0	2.136	186.466	0	PA_with_intermediate	test	ward_and_allport	-1	11.0	n/a	feedback	poldrack-single-stim	s590	False
188.609	4.078	4.078	192.687	1	PA_with_intermediate	test	ward_and_allport	89	12.0	4.078	to_hand	poldrack-single-stim	s590	False
192.688	0.1	0.463	193.151	0	PA_with_intermediate	test	ward_and_allport	82	12.0	0.463	to_board	poldrack-single-stim	s590	False
193.156	0.1	1.444	194.6	0	PA_with_intermediate	test	ward_and_allport	89	12.0	1.444	to_hand	poldrack-single-stim	s590	False
194.602	0.1	0.413	195.015	0	PA_with_intermediate	test	ward_and_allport	71	12.0	0.413	to_board	poldrack-single-stim	s590	False
195.021	0.1	0.757	195.778	0	PA_with_intermediate	test	ward_and_allport	82	12.0	0.757	to_hand	poldrack-single-stim	s590	False
195.779	0.1	0.265	196.044	0	PA_with_intermediate	test	ward_and_allport	89	12.0	0.265	to_board	poldrack-single-stim	s590	False
196.053	1.0	2.408	196.052	0	PA_with_intermediate	test	ward_and_allport	-1	12.0	n/a	feedback	poldrack-single-stim	s590	False
198.466	3.011	3.011	201.477	1	PA_without_intermediate	test	ward_and_allport	82	13.0	3.011	to_hand	poldrack-single-stim	s590	False
201.479	0.1	0.563	202.042	0	PA_without_intermediate	test	ward_and_allport	71	13.0	0.563	to_board	poldrack-single-stim	s590	False
202.047	0.1	0.746	202.793	0	PA_without_intermediate	test	ward_and_allport	82	13.0	0.746	to_hand	poldrack-single-stim	s590	False
202.794	0.1	0.359	203.153	0	PA_without_intermediate	test	ward_and_allport	71	13.0	0.359	to_board	poldrack-single-stim	s590	False
203.159	0.1	1.653	204.812	0	PA_without_intermediate	test	ward_and_allport	82	13.0	1.653	to_hand	poldrack-single-stim	s590	False
204.814	0.1	0.268	205.082	0	PA_without_intermediate	test	ward_and_allport	89	13.0	0.268	to_board	poldrack-single-stim	s590	False
205.09	1.0	2.68	205.089	0	PA_without_intermediate	test	ward_and_allport	-1	13.0	n/a	feedback	poldrack-single-stim	s590	False
207.775	3.446	3.446	211.221	1	PA_with_intermediate	test	ward_and_allport	89	14.0	3.446	to_hand	poldrack-single-stim	s590	False
211.222	0.1	0.502	211.724	0	PA_with_intermediate	test	ward_and_allport	82	14.0	0.502	to_board	poldrack-single-stim	s590	False
211.729	0.1	1.346	213.075	0	PA_with_intermediate	test	ward_and_allport	89	14.0	1.346	to_hand	poldrack-single-stim	s590	False
213.077	0.1	0.418	213.495	0	PA_with_intermediate	test	ward_and_allport	71	14.0	0.418	to_board	poldrack-single-stim	s590	False
213.499	0.1	0.642	214.141	0	PA_with_intermediate	test	ward_and_allport	82	14.0	0.642	to_hand	poldrack-single-stim	s590	False
214.142	0.1	0.423	214.565	0	PA_with_intermediate	test	ward_and_allport	71	14.0	0.423	to_board	poldrack-single-stim	s590	False
214.571	1.0	4.72	214.57	0	PA_with_intermediate	test	ward_and_allport	-1	14.0	n/a	feedback	poldrack-single-stim	s590	False
224.297	3.849	3.849	228.146	1	PA_without_intermediate	test	ward_and_allport	71	15.0	3.849	to_hand	poldrack-single-stim	s590	False
228.147	0.1	0.584	228.731	0	PA_without_intermediate	test	ward_and_allport	82	15.0	0.584	to_board	poldrack-single-stim	s590	False
228.737	0.1	1.149	229.886	0	PA_without_intermediate	test	ward_and_allport	71	15.0	1.149	to_hand	poldrack-single-stim	s590	False
229.887	0.1	0.466	230.353	0	PA_without_intermediate	test	ward_and_allport	82	15.0	0.466	to_board	poldrack-single-stim	s590	False
230.359	0.1	0.59	230.949	0	PA_without_intermediate	test	ward_and_allport	71	15.0	0.59	to_hand	poldrack-single-stim	s590	False
230.951	0.1	0.308	231.259	0	PA_without_intermediate	test	ward_and_allport	89	15.0	0.308	to_board	poldrack-single-stim	s590	False
231.267	1.0	3.224	231.266	0	PA_without_intermediate	test	ward_and_allport	-1	15.0	n/a	feedback	poldrack-single-stim	s590	False
234.496	2.974	2.974	237.47	1	PA_without_intermediate	test	ward_and_allport	71	16.0	2.974	to_hand	poldrack-single-stim	s590	False
237.471	0.1	0.468	237.939	0	PA_without_intermediate	test	ward_and_allport	82	16.0	0.468	to_board	poldrack-single-stim	s590	False
237.944	0.1	1.097	239.041	0	PA_without_intermediate	test	ward_and_allport	71	16.0	1.097	to_hand	poldrack-single-stim	s590	False
239.043	0.1	0.339	239.382	0	PA_without_intermediate	test	ward_and_allport	89	16.0	0.339	to_board	poldrack-single-stim	s590	False
239.387	0.1	0.527	239.914	0	PA_without_intermediate	test	ward_and_allport	71	16.0	0.527	to_hand	poldrack-single-stim	s590	False
239.916	0.1	0.282	240.198	0	PA_without_intermediate	test	ward_and_allport	82	16.0	0.282	to_board	poldrack-single-stim	s590	False
240.203	1.0	2.272	240.202	0	PA_without_intermediate	test	ward_and_allport	-1	16.0	n/a	feedback	poldrack-single-stim	s590	False
242.481	3.24	3.24	245.721	1	PA_with_intermediate	test	ward_and_allport	82	17.0	3.24	to_hand	poldrack-single-stim	s590	False
245.722	0.1	0.291	246.013	0	PA_with_intermediate	test	ward_and_allport	89	17.0	0.291	to_board	poldrack-single-stim	s590	False
246.02	0.1	0.588	246.608	0	PA_with_intermediate	test	ward_and_allport	82	17.0	0.588	to_hand	poldrack-single-stim	s590	False
246.609	0.1	0.334	246.943	0	PA_with_intermediate	test	ward_and_allport	71	17.0	0.334	to_board	poldrack-single-stim	s590	False
246.949	0.1	1.023	247.972	0	PA_with_intermediate	test	ward_and_allport	89	17.0	1.023	to_hand	poldrack-single-stim	s590	False
247.972	0.1	0.261	248.233	0	PA_with_intermediate	test	ward_and_allport	71	17.0	0.261	to_board	poldrack-single-stim	s590	False
248.241	1.0	3.632	248.24	0	PA_with_intermediate	test	ward_and_allport	-1	17.0	n/a	feedback	poldrack-single-stim	s590	False
251.879	5.286	5.286	257.165	1	PA_without_intermediate	test	ward_and_allport	82	18.0	5.286	to_hand	poldrack-single-stim	s590	False
257.167	0.1	0.4	257.567	0	PA_without_intermediate	test	ward_and_allport	71	18.0	0.4	to_board	poldrack-single-stim	s590	False
257.574	0.1	0.89	258.464	0	PA_without_intermediate	test	ward_and_allport	82	18.0	0.89	to_hand	poldrack-single-stim	s590	False
258.466	0.1	0.64	259.106	0	PA_without_intermediate	test	ward_and_allport	71	18.0	0.64	to_board	poldrack-single-stim	s590	False
259.112	0.1	1.013	260.125	0	PA_without_intermediate	test	ward_and_allport	82	18.0	1.013	to_hand	poldrack-single-stim	s590	False
260.126	0.1	0.295	260.421	0	PA_without_intermediate	test	ward_and_allport	89	18.0	0.295	to_board	poldrack-single-stim	s590	False
260.431	1.0	2.408	260.43	0	PA_without_intermediate	test	ward_and_allport	-1	18.0	n/a	feedback	poldrack-single-stim	s590	False
262.844	3.266	3.266	266.11	1	PA_without_intermediate	test	ward_and_allport	71	19.0	3.266	to_hand	poldrack-single-stim	s590	False
266.112	0.1	0.302	266.414	0	PA_without_intermediate	test	ward_and_allport	82	19.0	0.302	to_board	poldrack-single-stim	s590	False
266.42	0.1	0.804	267.224	0	PA_without_intermediate	test	ward_and_allport	71	19.0	0.804	to_hand	poldrack-single-stim	s590	False
267.224	0.1	0.274	267.498	0	PA_without_intermediate	test	ward_and_allport	89	19.0	0.274	to_board	poldrack-single-stim	s590	False
267.504	0.1	0.69	268.194	0	PA_without_intermediate	test	ward_and_allport	71	19.0	0.69	to_hand	poldrack-single-stim	s590	False
268.194	0.1	0.263	268.457	0	PA_without_intermediate	test	ward_and_allport	82	19.0	0.263	to_board	poldrack-single-stim	s590	False
268.466	1.0	2.0	268.465	0	PA_without_intermediate	test	ward_and_allport	-1	19.0	n/a	feedback	poldrack-single-stim	s590	False
270.472	2.963	2.963	273.435	1	PA_with_intermediate	test	ward_and_allport	71	20.0	2.963	to_hand	poldrack-single-stim	s590	False
273.436	0.1	0.31	273.746	0	PA_with_intermediate	test	ward_and_allport	89	20.0	0.31	to_board	poldrack-single-stim	s590	False
273.753	0.1	0.639	274.392	0	PA_with_intermediate	test	ward_and_allport	71	20.0	0.639	to_hand	poldrack-single-stim	s590	False
274.393	0.1	0.362	274.755	0	PA_with_intermediate	test	ward_and_allport	82	20.0	0.362	to_board	poldrack-single-stim	s590	False
274.761	0.1	0.876	275.637	0	PA_with_intermediate	test	ward_and_allport	89	20.0	0.876	to_hand	poldrack-single-stim	s590	False
275.639	0.1	0.28	275.919	0	PA_with_intermediate	test	ward_and_allport	71	20.0	0.28	to_board	poldrack-single-stim	s590	False
275.927	1.0	2.0	275.926	0	PA_with_intermediate	test	ward_and_allport	-1	20.0	n/a	feedback	poldrack-single-stim	s590	False
277.934	4.575	4.575	282.509	1	PA_with_intermediate	test	ward_and_allport	82	21.0	4.575	to_hand	poldrack-single-stim	s590	False
282.511	0.1	0.544	283.055	0	PA_with_intermediate	test	ward_and_allport	71	21.0	0.544	to_board	poldrack-single-stim	s590	False
283.061	0.1	0.543	283.604	0	PA_with_intermediate	test	ward_and_allport	82	21.0	0.543	to_hand	poldrack-single-stim	s590	False
283.605	0.1	0.391	283.996	0	PA_with_intermediate	test	ward_and_allport	89	21.0	0.391	to_board	poldrack-single-stim	s590	False
284.004	0.1	0.427	284.431	0	PA_with_intermediate	test	ward_and_allport	71	21.0	0.427	to_hand	poldrack-single-stim	s590	False
284.431	0.1	0.42	284.851	0	PA_with_intermediate	test	ward_and_allport	82	21.0	0.42	to_board	poldrack-single-stim	s590	False
284.86	1.0	2.0	284.859	0	PA_with_intermediate	test	ward_and_allport	-1	21.0	n/a	feedback	poldrack-single-stim	s590	False
286.868	4.735	4.735	291.603	1	PA_with_intermediate	test	ward_and_allport	82	22.0	4.735	to_hand	poldrack-single-stim	s590	False
291.605	0.1	0.39	291.995	0	PA_with_intermediate	test	ward_and_allport	71	22.0	0.39	to_board	poldrack-single-stim	s590	False
292.002	0.1	0.437	292.439	0	PA_with_intermediate	test	ward_and_allport	82	22.0	0.437	to_hand	poldrack-single-stim	s590	False
292.44	0.1	0.294	292.734	0	PA_with_intermediate	test	ward_and_allport	89	22.0	0.294	to_board	poldrack-single-stim	s590	False
292.742	0.1	0.435	293.177	0	PA_with_intermediate	test	ward_and_allport	71	22.0	0.435	to_hand	poldrack-single-stim	s590	False
293.177	0.1	0.43	293.607	0	PA_with_intermediate	test	ward_and_allport	82	22.0	0.43	to_board	poldrack-single-stim	s590	False
293.616	1.0	2.408	293.615	0	PA_with_intermediate	test	ward_and_allport	-1	22.0	n/a	feedback	poldrack-single-stim	s590	False
296.032	3.804	3.804	299.836	1	PA_without_intermediate	test	ward_and_allport	82	23.0	3.804	to_hand	poldrack-single-stim	s590	False
299.837	0.1	0.35	300.187	0	PA_without_intermediate	test	ward_and_allport	71	23.0	0.35	to_board	poldrack-single-stim	s590	False
300.195	0.1	0.371	300.566	0	PA_without_intermediate	test	ward_and_allport	82	23.0	0.371	to_hand	poldrack-single-stim	s590	False
300.567	0.1	0.375	300.942	0	PA_without_intermediate	test	ward_and_allport	89	23.0	0.375	to_board	poldrack-single-stim	s590	False
300.95	0.1	0.365	301.315	0	PA_without_intermediate	test	ward_and_allport	82	23.0	0.365	to_hand	poldrack-single-stim	s590	False
301.316	0.1	0.396	301.712	0	PA_without_intermediate	test	ward_and_allport	71	23.0	0.396	to_board	poldrack-single-stim	s590	False
301.726	1.0	2.816	301.725	0	PA_without_intermediate	test	ward_and_allport	-1	23.0	n/a	feedback	poldrack-single-stim	s590	False
304.55	2.35	2.35	306.9	1	PA_with_intermediate	test	ward_and_allport	71	24.0	2.35	to_hand	poldrack-single-stim	s590	False
306.901	0.1	0.314	307.215	0	PA_with_intermediate	test	ward_and_allport	89	24.0	0.314	to_board	poldrack-single-stim	s590	False
307.223	0.1	0.642	307.865	0	PA_with_intermediate	test	ward_and_allport	71	24.0	0.642	to_hand	poldrack-single-stim	s590	False
307.867	0.1	0.525	308.392	0	PA_with_intermediate	test	ward_and_allport	82	24.0	0.525	to_board	poldrack-single-stim	s590	False
308.4	0.1	0.543	308.943	0	PA_with_intermediate	test	ward_and_allport	89	24.0	0.543	to_hand	poldrack-single-stim	s590	False
308.944	0.1	0.396	309.34	0	PA_with_intermediate	test	ward_and_allport	82	24.0	0.396	to_board	poldrack-single-stim	s590	False
309.349	1.0	4.176	309.348	0	PA_with_intermediate	test	ward_and_allport	-1	24.0	n/a	feedback	poldrack-single-stim	s590	False
313.533	3.53	3.53	317.063	1	PA_with_intermediate	test	ward_and_allport	82	25.0	3.53	to_hand	poldrack-single-stim	s590	False
317.065	0.1	0.433	317.498	0	PA_with_intermediate	test	ward_and_allport	89	25.0	0.433	to_board	poldrack-single-stim	s590	False
317.506	0.1	0.845	318.351	0	PA_with_intermediate	test	ward_and_allport	82	25.0	0.845	to_hand	poldrack-single-stim	s590	False
318.352	0.1	0.427	318.779	0	PA_with_intermediate	test	ward_and_allport	71	25.0	0.427	to_board	poldrack-single-stim	s590	False
318.787	0.1	0.54	319.327	0	PA_with_intermediate	test	ward_and_allport	89	25.0	0.54	to_hand	poldrack-single-stim	s590	False
319.328	0.1	0.328	319.656	0	PA_with_intermediate	test	ward_and_allport	82	25.0	0.328	to_board	poldrack-single-stim	s590	False
319.665	1.0	3.36	319.664	0	PA_with_intermediate	test	ward_and_allport	-1	25.0	n/a	feedback	poldrack-single-stim	s590	False
323.033	5.705	5.705	328.738	1	PA_with_intermediate	test	ward_and_allport	89	26.0	5.705	to_hand	poldrack-single-stim	s590	False
328.74	0.1	0.321	329.061	0	PA_with_intermediate	test	ward_and_allport	82	26.0	0.321	to_board	poldrack-single-stim	s590	False
329.069	0.1	0.874	329.943	0	PA_with_intermediate	test	ward_and_allport	89	26.0	0.874	to_hand	poldrack-single-stim	s590	False
329.944	0.1	0.354	330.298	0	PA_with_intermediate	test	ward_and_allport	71	26.0	0.354	to_board	poldrack-single-stim	s590	False
330.306	0.1	0.444	330.75	0	PA_with_intermediate	test	ward_and_allport	82	26.0	0.444	to_hand	poldrack-single-stim	s590	False
330.751	0.1	0.315	331.066	0	PA_with_intermediate	test	ward_and_allport	71	26.0	0.315	to_board	poldrack-single-stim	s590	False
331.076	1.0	2.0	331.075	0	PA_with_intermediate	test	ward_and_allport	-1	26.0	n/a	feedback	poldrack-single-stim	s590	False
333.084	5.654	5.654	338.738	1	PA_without_intermediate	test	ward_and_allport	89	27.0	5.654	to_hand	poldrack-single-stim	s590	False
338.74	0.1	0.331	339.071	0	PA_without_intermediate	test	ward_and_allport	82	27.0	0.331	to_board	poldrack-single-stim	s590	False
339.08	0.1	0.726	339.806	0	PA_without_intermediate	test	ward_and_allport	89	27.0	0.726	to_hand	poldrack-single-stim	s590	False
339.808	0.1	0.322	340.13	0	PA_without_intermediate	test	ward_and_allport	71	27.0	0.322	to_board	poldrack-single-stim	s590	False
340.139	0.1	0.508	340.647	0	PA_without_intermediate	test	ward_and_allport	89	27.0	0.508	to_hand	poldrack-single-stim	s590	False
340.648	0.1	0.285	340.933	0	PA_without_intermediate	test	ward_and_allport	82	27.0	0.285	to_board	poldrack-single-stim	s590	False
340.946	1.0	2.408	340.945	0	PA_without_intermediate	test	ward_and_allport	-1	27.0	n/a	feedback	poldrack-single-stim	s590	False
343.362	4.966	4.966	348.328	1	PA_with_intermediate	test	ward_and_allport	71	28.0	4.966	to_hand	poldrack-single-stim	s590	False
348.33	0.1	0.31	348.64	0	PA_with_intermediate	test	ward_and_allport	82	28.0	0.31	to_board	poldrack-single-stim	s590	False
348.649	0.1	0.771	349.42	0	PA_with_intermediate	test	ward_and_allport	71	28.0	0.771	to_hand	poldrack-single-stim	s590	False
349.42	0.1	0.262	349.682	0	PA_with_intermediate	test	ward_and_allport	89	28.0	0.262	to_board	poldrack-single-stim	s590	False
349.691	0.1	0.507	350.198	0	PA_with_intermediate	test	ward_and_allport	82	28.0	0.507	to_hand	poldrack-single-stim	s590	False
350.198	0.1	0.268	350.466	0	PA_with_intermediate	test	ward_and_allport	89	28.0	0.268	to_board	poldrack-single-stim	s590	False
350.475	1.0	2.816	350.474	0	PA_with_intermediate	test	ward_and_allport	-1	28.0	n/a	feedback	poldrack-single-stim	s590	False
353.301	6.338	6.338	359.639	1	PA_without_intermediate	test	ward_and_allport	89	29.0	6.338	to_hand	poldrack-single-stim	s590	False
359.64	0.1	0.617	360.257	0	PA_without_intermediate	test	ward_and_allport	71	29.0	0.617	to_board	poldrack-single-stim	s590	False
360.266	0.1	0.731	360.997	0	PA_without_intermediate	test	ward_and_allport	89	29.0	0.731	to_hand	poldrack-single-stim	s590	False
360.998	0.1	0.342	361.34	0	PA_without_intermediate	test	ward_and_allport	71	29.0	0.342	to_board	poldrack-single-stim	s590	False
361.349	0.1	0.59	361.939	0	PA_without_intermediate	test	ward_and_allport	89	29.0	0.59	to_hand	poldrack-single-stim	s590	False
361.94	0.1	0.249	362.189	0	PA_without_intermediate	test	ward_and_allport	82	29.0	0.249	to_board	poldrack-single-stim	s590	False
362.198	1.0	3.088	362.197	0	PA_without_intermediate	test	ward_and_allport	-1	29.0	n/a	feedback	poldrack-single-stim	s590	False
370.297	2.945	2.945	373.242	1	PA_without_intermediate	test	ward_and_allport	89	30.0	2.945	to_hand	poldrack-single-stim	s590	False
373.243	0.1	0.592	373.835	0	PA_without_intermediate	test	ward_and_allport	71	30.0	0.592	to_board	poldrack-single-stim	s590	False
373.845	0.1	0.498	374.343	0	PA_without_intermediate	test	ward_and_allport	89	30.0	0.498	to_hand	poldrack-single-stim	s590	False
374.345	0.1	0.686	375.031	0	PA_without_intermediate	test	ward_and_allport	71	30.0	0.686	to_board	poldrack-single-stim	s590	False
375.039	0.1	0.441	375.48	0	PA_without_intermediate	test	ward_and_allport	89	30.0	0.441	to_hand	poldrack-single-stim	s590	False
375.481	0.1	0.42	375.901	0	PA_without_intermediate	test	ward_and_allport	82	30.0	0.42	to_board	poldrack-single-stim	s590	False
375.914	1.0	2.136	375.913	0	PA_without_intermediate	test	ward_and_allport	-1	30.0	n/a	feedback	poldrack-single-stim	s590	False
378.06	3.556	3.556	381.616	1	PA_without_intermediate	test	ward_and_allport	89	31.0	3.556	to_hand	poldrack-single-stim	s590	False
381.617	0.1	0.382	381.999	0	PA_without_intermediate	test	ward_and_allport	82	31.0	0.382	to_board	poldrack-single-stim	s590	False
382.01	0.1	0.906	382.916	0	PA_without_intermediate	test	ward_and_allport	89	31.0	0.906	to_hand	poldrack-single-stim	s590	False
382.917	0.1	0.315	383.232	0	PA_without_intermediate	test	ward_and_allport	71	31.0	0.315	to_board	poldrack-single-stim	s590	False
383.243	0.1	0.308	383.551	0	PA_without_intermediate	test	ward_and_allport	89	31.0	0.308	to_hand	poldrack-single-stim	s590	False
383.552	0.1	0.369	383.921	0	PA_without_intermediate	test	ward_and_allport	82	31.0	0.369	to_board	poldrack-single-stim	s590	False
383.937	1.0	7.168	383.936	0	PA_without_intermediate	test	ward_and_allport	-1	31.0	n/a	feedback	poldrack-single-stim	s590	False
391.117	2.482	2.482	393.599	1	PA_without_intermediate	test	ward_and_allport	89	32.0	2.482	to_hand	poldrack-single-stim	s590	False
393.601	0.1	0.402	394.003	0	PA_without_intermediate	test	ward_and_allport	82	32.0	0.402	to_board	poldrack-single-stim	s590	False
394.015	0.1	0.86	394.875	0	PA_without_intermediate	test	ward_and_allport	89	32.0	0.86	to_hand	poldrack-single-stim	s590	False
394.877	0.1	0.387	395.264	0	PA_without_intermediate	test	ward_and_allport	82	32.0	0.387	to_board	poldrack-single-stim	s590	False
395.275	0.1	1.01	396.285	0	PA_without_intermediate	test	ward_and_allport	89	32.0	1.01	to_hand	poldrack-single-stim	s590	False
396.287	0.1	0.372	396.659	0	PA_without_intermediate	test	ward_and_allport	71	32.0	0.372	to_board	poldrack-single-stim	s590	False
396.673	1.0	2.816	396.672	0	PA_without_intermediate	test	ward_and_allport	-1	32.0	n/a	feedback	poldrack-single-stim	s590	False
399.496	4.185	4.185	403.681	1	PA_with_intermediate	test	ward_and_allport	71	33.0	4.185	to_hand	poldrack-single-stim	s590	False
403.682	0.1	0.836	404.518	0	PA_with_intermediate	test	ward_and_allport	82	33.0	0.836	to_board	poldrack-single-stim	s590	False
404.525	0.1	0.742	405.267	0	PA_with_intermediate	test	ward_and_allport	71	33.0	0.742	to_hand	poldrack-single-stim	s590	False
405.269	0.1	0.277	405.546	0	PA_with_intermediate	test	ward_and_allport	89	33.0	0.277	to_board	poldrack-single-stim	s590	False
405.557	0.1	0.356	405.913	0	PA_with_intermediate	test	ward_and_allport	82	33.0	0.356	to_hand	poldrack-single-stim	s590	False
405.914	0.1	0.345	406.259	0	PA_with_intermediate	test	ward_and_allport	71	33.0	0.345	to_board	poldrack-single-stim	s590	False
406.276	1.0	2.952	406.275	0	PA_with_intermediate	test	ward_and_allport	-1	33.0	n/a	feedback	poldrack-single-stim	s590	False
409.238	5.18	5.18	414.418	1	PA_with_intermediate	test	ward_and_allport	89	34.0	5.18	to_hand	poldrack-single-stim	s590	False
414.419	0.1	0.268	414.687	0	PA_with_intermediate	test	ward_and_allport	82	34.0	0.268	to_board	poldrack-single-stim	s590	False
414.698	0.1	0.725	415.423	0	PA_with_intermediate	test	ward_and_allport	89	34.0	0.725	to_hand	poldrack-single-stim	s590	False
415.424	0.1	0.3	415.724	0	PA_with_intermediate	test	ward_and_allport	71	34.0	0.3	to_board	poldrack-single-stim	s590	False
415.736	0.1	0.369	416.105	0	PA_with_intermediate	test	ward_and_allport	82	34.0	0.369	to_hand	poldrack-single-stim	s590	False
416.107	0.1	0.235	416.342	0	PA_with_intermediate	test	ward_and_allport	89	34.0	0.235	to_board	poldrack-single-stim	s590	False
416.356	1.0	2.136	416.355	0	PA_with_intermediate	test	ward_and_allport	-1	34.0	n/a	feedback	poldrack-single-stim	s590	False
418.505	4.85	4.85	423.355	1	PA_without_intermediate	test	ward_and_allport	82	35.0	4.85	to_hand	poldrack-single-stim	s590	False
423.356	0.1	0.275	423.631	0	PA_without_intermediate	test	ward_and_allport	89	35.0	0.275	to_board	poldrack-single-stim	s590	False
423.641	0.1	1.317	424.958	0	PA_without_intermediate	test	ward_and_allport	82	35.0	1.317	to_hand	poldrack-single-stim	s590	False
424.959	0.1	0.303	425.262	0	PA_without_intermediate	test	ward_and_allport	71	35.0	0.303	to_board	poldrack-single-stim	s590	False
425.274	0.1	0.429	425.703	0	PA_without_intermediate	test	ward_and_allport	82	35.0	0.429	to_hand	poldrack-single-stim	s590	False
425.705	0.1	0.258	425.963	0	PA_without_intermediate	test	ward_and_allport	89	35.0	0.258	to_board	poldrack-single-stim	s590	False
425.975	1.0	2.68	425.974	0	PA_without_intermediate	test	ward_and_allport	-1	35.0	n/a	feedback	poldrack-single-stim	s590	False
428.666	2.578	2.578	431.244	1	PA_without_intermediate	test	ward_and_allport	82	36.0	2.578	to_hand	poldrack-single-stim	s590	False
431.245	0.1	1.248	432.493	0	PA_without_intermediate	test	ward_and_allport	71	36.0	1.248	to_board	poldrack-single-stim	s590	False
432.502	0.1	0.421	432.923	0	PA_without_intermediate	test	ward_and_allport	82	36.0	0.421	to_hand	poldrack-single-stim	s590	False
432.925	0.1	0.419	433.344	0	PA_without_intermediate	test	ward_and_allport	89	36.0	0.419	to_board	poldrack-single-stim	s590	False
433.354	0.1	0.656	434.01	0	PA_without_intermediate	test	ward_and_allport	82	36.0	0.656	to_hand	poldrack-single-stim	s590	False
434.012	0.1	0.44	434.452	0	PA_without_intermediate	test	ward_and_allport	71	36.0	0.44	to_board	poldrack-single-stim	s590	False
434.466	1.0	3.088	434.465	0	PA_without_intermediate	test	ward_and_allport	-1	36.0	n/a	feedback	poldrack-single-stim	s590	False
437.562	3.031	3.031	440.593	1	PA_with_intermediate	test	ward_and_allport	71	37.0	3.031	to_hand	poldrack-single-stim	s590	False
440.594	0.1	0.411	441.005	0	PA_with_intermediate	test	ward_and_allport	82	37.0	0.411	to_board	poldrack-single-stim	s590	False
441.013	0.1	0.364	441.377	0	PA_with_intermediate	test	ward_and_allport	71	37.0	0.364	to_hand	poldrack-single-stim	s590	False
441.378	0.1	0.346	441.724	0	PA_with_intermediate	test	ward_and_allport	89	37.0	0.346	to_board	poldrack-single-stim	s590	False
441.736	0.1	0.322	442.058	0	PA_with_intermediate	test	ward_and_allport	82	37.0	0.322	to_hand	poldrack-single-stim	s590	False
442.059	0.1	0.256	442.315	0	PA_with_intermediate	test	ward_and_allport	89	37.0	0.256	to_board	poldrack-single-stim	s590	False
442.328	1.0	2.0	442.327	0	PA_with_intermediate	test	ward_and_allport	-1	37.0	n/a	feedback	poldrack-single-stim	s590	False
444.338	2.268	2.268	446.606	1	PA_without_intermediate	test	ward_and_allport	71	38.0	2.268	to_hand	poldrack-single-stim	s590	False
446.607	0.1	0.309	446.916	0	PA_without_intermediate	test	ward_and_allport	82	38.0	0.309	to_board	poldrack-single-stim	s590	False
446.924	0.1	0.829	447.753	0	PA_without_intermediate	test	ward_and_allport	71	38.0	0.829	to_hand	poldrack-single-stim	s590	False
447.754	0.1	0.341	448.095	0	PA_without_intermediate	test	ward_and_allport	82	38.0	0.341	to_board	poldrack-single-stim	s590	False
448.103	0.1	0.524	448.627	0	PA_without_intermediate	test	ward_and_allport	71	38.0	0.524	to_hand	poldrack-single-stim	s590	False
448.629	0.1	0.306	448.935	0	PA_without_intermediate	test	ward_and_allport	89	38.0	0.306	to_board	poldrack-single-stim	s590	False
448.947	1.0	2.0	448.946	0	PA_without_intermediate	test	ward_and_allport	-1	38.0	n/a	feedback	poldrack-single-stim	s590	False
450.957	1.477	1.477	452.434	1	PA_without_intermediate	test	ward_and_allport	82	39.0	1.477	to_hand	poldrack-single-stim	s590	False
452.435	0.1	0.38	452.815	0	PA_without_intermediate	test	ward_and_allport	89	39.0	0.38	to_board	poldrack-single-stim	s590	False
452.823	0.1	0.754	453.577	0	PA_without_intermediate	test	ward_and_allport	82	39.0	0.754	to_hand	poldrack-single-stim	s590	False
453.578	0.1	0.385	453.963	0	PA_without_intermediate	test	ward_and_allport	89	39.0	0.385	to_board	poldrack-single-stim	s590	False
453.972	0.1	1.082	455.054	0	PA_without_intermediate	test	ward_and_allport	82	39.0	1.082	to_hand	poldrack-single-stim	s590	False
455.056	0.1	0.329	455.385	0	PA_without_intermediate	test	ward_and_allport	71	39.0	0.329	to_board	poldrack-single-stim	s590	False
455.395	1.0	2.0	455.394	0	PA_without_intermediate	test	ward_and_allport	-1	39.0	n/a	feedback	poldrack-single-stim	s590	False
457.405	3.468	3.468	460.873	1	PA_with_intermediate	test	ward_and_allport	89	40.0	3.468	to_hand	poldrack-single-stim	s590	False
460.875	0.1	0.397	461.272	0	PA_with_intermediate	test	ward_and_allport	71	40.0	0.397	to_board	poldrack-single-stim	s590	False
461.28	0.1	0.632	461.912	0	PA_with_intermediate	test	ward_and_allport	89	40.0	0.632	to_hand	poldrack-single-stim	s590	False
461.913	0.1	0.343	462.256	0	PA_with_intermediate	test	ward_and_allport	82	40.0	0.343	to_board	poldrack-single-stim	s590	False
462.265	0.1	0.681	462.946	0	PA_with_intermediate	test	ward_and_allport	71	40.0	0.681	to_hand	poldrack-single-stim	s590	False
462.948	0.1	0.472	463.42	0	PA_with_intermediate	test	ward_and_allport	89	40.0	0.472	to_board	poldrack-single-stim	s590	False
463.432	1.0	2.544	463.431	0	PA_with_intermediate	test	ward_and_allport	-1	40.0	n/a	feedback	poldrack-single-stim	s590	False
465.988	3.562	3.562	469.55	1	PA_without_intermediate	test	ward_and_allport	71	41.0	3.562	to_hand	poldrack-single-stim	s590	False
469.552	0.1	0.341	469.893	0	PA_without_intermediate	test	ward_and_allport	89	41.0	0.341	to_board	poldrack-single-stim	s590	False
469.904	0.1	0.57	470.474	0	PA_without_intermediate	test	ward_and_allport	71	41.0	0.57	to_hand	poldrack-single-stim	s590	False
470.475	0.1	0.336	470.811	0	PA_without_intermediate	test	ward_and_allport	82	41.0	0.336	to_board	poldrack-single-stim	s590	False
470.823	0.1	0.559	471.382	0	PA_without_intermediate	test	ward_and_allport	71	41.0	0.559	to_hand	poldrack-single-stim	s590	False
471.383	0.1	0.239	471.622	0	PA_without_intermediate	test	ward_and_allport	89	41.0	0.239	to_board	poldrack-single-stim	s590	False
471.639	1.0	2.272	471.638	0	PA_without_intermediate	test	ward_and_allport	-1	41.0	n/a	feedback	poldrack-single-stim	s590	False
473.919	2.354	2.354	476.273	1	PA_with_intermediate	test	ward_and_allport	71	42.0	2.354	to_hand	poldrack-single-stim	s590	False
476.275	0.1	7.627	483.902	0	PA_with_intermediate	test	ward_and_allport	89	42.0	7.627	to_board	poldrack-single-stim	s590	False
483.912	0.1	0.451	484.363	0	PA_with_intermediate	test	ward_and_allport	71	42.0	0.451	to_hand	poldrack-single-stim	s590	False
484.364	0.1	0.3	484.664	0	PA_with_intermediate	test	ward_and_allport	82	42.0	0.3	to_board	poldrack-single-stim	s590	False
484.675	0.1	0.334	485.009	0	PA_with_intermediate	test	ward_and_allport	89	42.0	0.334	to_hand	poldrack-single-stim	s590	False
485.01	0.1	0.228	485.238	0	PA_with_intermediate	test	ward_and_allport	71	42.0	0.228	to_board	poldrack-single-stim	s590	False
485.255	1.0	4.04	485.254	0	PA_with_intermediate	test	ward_and_allport	-1	42.0	n/a	feedback	poldrack-single-stim	s590	False
489.306	3.876	3.876	493.182	1	PA_with_intermediate	test	ward_and_allport	89	43.0	3.876	to_hand	poldrack-single-stim	s590	False
493.184	0.1	0.329	493.513	0	PA_with_intermediate	test	ward_and_allport	71	43.0	0.329	to_board	poldrack-single-stim	s590	False
493.522	0.1	0.734	494.256	0	PA_with_intermediate	test	ward_and_allport	89	43.0	0.734	to_hand	poldrack-single-stim	s590	False
494.258	0.1	0.35	494.608	0	PA_with_intermediate	test	ward_and_allport	82	43.0	0.35	to_board	poldrack-single-stim	s590	False
494.621	0.1	0.355	494.976	0	PA_with_intermediate	test	ward_and_allport	71	43.0	0.355	to_hand	poldrack-single-stim	s590	False
494.978	0.1	0.316	495.294	0	PA_with_intermediate	test	ward_and_allport	82	43.0	0.316	to_board	poldrack-single-stim	s590	False
495.311	1.0	2.272	495.31	0	PA_with_intermediate	test	ward_and_allport	-1	43.0	n/a	feedback	poldrack-single-stim	s590	False
497.593	3.967	3.967	501.56	1	PA_with_intermediate	test	ward_and_allport	82	44.0	3.967	to_hand	poldrack-single-stim	s590	False
501.561	0.1	0.393	501.954	0	PA_with_intermediate	test	ward_and_allport	89	44.0	0.393	to_board	poldrack-single-stim	s590	False
501.962	0.1	0.629	502.591	0	PA_with_intermediate	test	ward_and_allport	82	44.0	0.629	to_hand	poldrack-single-stim	s590	False
502.592	0.1	0.327	502.919	0	PA_with_intermediate	test	ward_and_allport	71	44.0	0.327	to_board	poldrack-single-stim	s590	False
502.93	0.1	0.378	503.308	0	PA_with_intermediate	test	ward_and_allport	89	44.0	0.378	to_hand	poldrack-single-stim	s590	False
503.31	0.1	0.253	503.563	0	PA_with_intermediate	test	ward_and_allport	82	44.0	0.253	to_board	poldrack-single-stim	s590	False
503.575	1.0	2.136	503.574	0	PA_with_intermediate	test	ward_and_allport	-1	44.0	n/a	feedback	poldrack-single-stim	s590	False
510.725	3.012	3.012	513.737	1	PA_with_intermediate	test	ward_and_allport	71	45.0	3.012	to_hand	poldrack-single-stim	s590	False
513.738	0.1	0.383	514.121	0	PA_with_intermediate	test	ward_and_allport	82	45.0	0.383	to_board	poldrack-single-stim	s590	False
514.136	0.1	0.419	514.555	0	PA_with_intermediate	test	ward_and_allport	71	45.0	0.419	to_hand	poldrack-single-stim	s590	False
514.556	0.1	0.287	514.843	0	PA_with_intermediate	test	ward_and_allport	89	45.0	0.287	to_board	poldrack-single-stim	s590	False
514.856	0.1	0.292	515.148	0	PA_with_intermediate	test	ward_and_allport	82	45.0	0.292	to_hand	poldrack-single-stim	s590	False
515.149	0.1	0.225	515.374	0	PA_with_intermediate	test	ward_and_allport	89	45.0	0.225	to_board	poldrack-single-stim	s590	False
515.388	0.1	1.299	516.687	0	PA_with_intermediate	test	ward_and_allport	89	45.0	1.299	to_hand	poldrack-single-stim	s590	False
516.689	0.1	0.204	516.893	0	PA_with_intermediate	test	ward_and_allport	82	45.0	0.204	to_board	poldrack-single-stim	s590	False
516.905	0.1	1.606	518.511	0	PA_with_intermediate	test	ward_and_allport	82	45.0	1.606	to_hand	poldrack-single-stim	s590	False
518.513	0.1	0.194	518.707	0	PA_with_intermediate	test	ward_and_allport	71	45.0	0.194	to_board	poldrack-single-stim	s590	False
518.72	1.0	2.0	518.719	0	PA_with_intermediate	test	ward_and_allport	-1	45.0	n/a	feedback	poldrack-single-stim	s590	False
520.73	6.184	6.184	526.914	1	PA_with_intermediate	test	ward_and_allport	82	46.0	6.184	to_hand	poldrack-single-stim	s590	False
526.915	0.1	0.597	527.512	0	PA_with_intermediate	test	ward_and_allport	71	46.0	0.597	to_board	poldrack-single-stim	s590	False
527.521	0.1	0.5	528.021	0	PA_with_intermediate	test	ward_and_allport	82	46.0	0.5	to_hand	poldrack-single-stim	s590	False
528.023	0.1	0.264	528.287	0	PA_with_intermediate	test	ward_and_allport	89	46.0	0.264	to_board	poldrack-single-stim	s590	False
528.299	0.1	0.451	528.75	0	PA_with_intermediate	test	ward_and_allport	71	46.0	0.451	to_hand	poldrack-single-stim	s590	False
528.752	0.1	0.374	529.126	0	PA_with_intermediate	test	ward_and_allport	89	46.0	0.374	to_board	poldrack-single-stim	s590	False
529.141	1.0	2.0	529.14	0	PA_with_intermediate	test	ward_and_allport	-1	46.0	n/a	feedback	poldrack-single-stim	s590	False
531.155	3.719	3.719	534.874	1	PA_without_intermediate	test	ward_and_allport	71	47.0	3.719	to_hand	poldrack-single-stim	s590	False
534.875	0.1	0.531	535.406	0	PA_without_intermediate	test	ward_and_allport	89	47.0	0.531	to_board	poldrack-single-stim	s590	False
535.415	0.1	1.855	537.27	0	PA_without_intermediate	test	ward_and_allport	71	47.0	1.855	to_hand	poldrack-single-stim	s590	False
537.272	0.1	0.373	537.645	0	PA_without_intermediate	test	ward_and_allport	82	47.0	0.373	to_board	poldrack-single-stim	s590	False
537.657	0.1	0.387	538.044	0	PA_without_intermediate	test	ward_and_allport	71	47.0	0.387	to_hand	poldrack-single-stim	s590	False
538.045	0.1	0.317	538.362	0	PA_without_intermediate	test	ward_and_allport	89	47.0	0.317	to_board	poldrack-single-stim	s590	False
538.378	1.0	2.408	538.377	0	PA_without_intermediate	test	ward_and_allport	-1	47.0	n/a	feedback	poldrack-single-stim	s590	False
