onset	duration	block_duration	movement_onset	planning	condition	exp_stage	experiment_exp_id	key_press	problem_id	response_time	trial_id	trial_type	worker_id	junk
3.01	5.255	5.255	8.265	1	UA_with_intermediate	practice	ward_and_allport	71	0.0	5.255	to_hand	poldrack-single-stim	s648	False
8.267	0.1	1.282	9.549	0	UA_with_intermediate	practice	ward_and_allport	82	0.0	1.282	to_board	poldrack-single-stim	s648	False
9.552	0.1	1.091	10.643	0	UA_with_intermediate	practice	ward_and_allport	71	0.0	1.091	to_hand	poldrack-single-stim	s648	False
10.645	0.1	1.164	11.809	0	UA_with_intermediate	practice	ward_and_allport	89	0.0	1.164	to_board	poldrack-single-stim	s648	False
11.81	0.1	0.87	12.68	0	UA_with_intermediate	practice	ward_and_allport	82	0.0	0.87	to_hand	poldrack-single-stim	s648	False
12.682	0.1	0.868	13.55	0	UA_with_intermediate	practice	ward_and_allport	89	0.0	0.868	to_board	poldrack-single-stim	s648	False
13.556	1.0	2.5	13.555	0	UA_with_intermediate	practice	ward_and_allport	-1	0.0	n/a	feedback	poldrack-single-stim	s648	False
16.058	4.711	4.711	20.769	1	UA_with_intermediate	practice	ward_and_allport	89	1.0	4.711	to_hand	poldrack-single-stim	s648	False
20.771	0.1	2.946	23.717	0	UA_with_intermediate	practice	ward_and_allport	82	1.0	2.946	to_board	poldrack-single-stim	s648	False
23.718	0.1	1.386	25.104	0	UA_with_intermediate	practice	ward_and_allport	71	1.0	1.386	to_hand	poldrack-single-stim	s648	False
25.106	0.1	1.009	26.115	0	UA_with_intermediate	practice	ward_and_allport	89	1.0	1.009	to_board	poldrack-single-stim	s648	False
26.116	0.1	0.86	26.976	0	UA_with_intermediate	practice	ward_and_allport	82	1.0	0.86	to_hand	poldrack-single-stim	s648	False
26.977	0.1	0.485	27.462	0	UA_with_intermediate	practice	ward_and_allport	89	1.0	0.485	to_board	poldrack-single-stim	s648	False
27.466	1.0	2.1	27.465	0	UA_with_intermediate	practice	ward_and_allport	-1	1.0	n/a	feedback	poldrack-single-stim	s648	False
29.568	6.526	6.526	36.094	1	UA_without_intermediate	practice	ward_and_allport	82	2.0	6.526	to_hand	poldrack-single-stim	s648	False
36.094	0.1	1.972	38.066	0	UA_without_intermediate	practice	ward_and_allport	89	2.0	1.972	to_board	poldrack-single-stim	s648	False
38.068	0.1	0.226	38.294	0	UA_without_intermediate	practice	ward_and_allport	89	2.0	0.226	to_hand	poldrack-single-stim	s648	False
38.295	0.1	1.493	39.788	0	UA_without_intermediate	practice	ward_and_allport	89	2.0	1.493	to_board	poldrack-single-stim	s648	False
39.789	0.1	1.42	41.209	0	UA_without_intermediate	practice	ward_and_allport	71	2.0	1.42	to_hand	poldrack-single-stim	s648	False
41.211	0.1	0.503	41.714	0	UA_without_intermediate	practice	ward_and_allport	89	2.0	0.503	to_board	poldrack-single-stim	s648	False
41.717	0.1	2.013	43.73	0	UA_without_intermediate	practice	ward_and_allport	71	2.0	2.013	to_hand	poldrack-single-stim	s648	False
43.732	0.1	0.365	44.097	0	UA_without_intermediate	practice	ward_and_allport	89	2.0	0.365	to_board	poldrack-single-stim	s648	False
44.101	1.0	2.2	44.1	0	UA_without_intermediate	practice	ward_and_allport	-1	2.0	n/a	feedback	poldrack-single-stim	s648	False
46.302	5.588	5.588	51.89	1	UA_without_intermediate	practice	ward_and_allport	71	3.0	5.588	to_hand	poldrack-single-stim	s648	False
51.892	0.1	0.901	52.793	0	UA_without_intermediate	practice	ward_and_allport	89	3.0	0.901	to_board	poldrack-single-stim	s648	False
52.795	0.1	0.826	53.621	0	UA_without_intermediate	practice	ward_and_allport	82	3.0	0.826	to_hand	poldrack-single-stim	s648	False
53.623	0.1	0.659	54.282	0	UA_without_intermediate	practice	ward_and_allport	89	3.0	0.659	to_board	poldrack-single-stim	s648	False
54.284	0.1	0.578	54.862	0	UA_without_intermediate	practice	ward_and_allport	71	3.0	0.578	to_hand	poldrack-single-stim	s648	False
54.863	0.1	0.468	55.331	0	UA_without_intermediate	practice	ward_and_allport	89	3.0	0.468	to_board	poldrack-single-stim	s648	False
55.334	1.0	2.0	55.333	0	UA_without_intermediate	practice	ward_and_allport	-1	3.0	n/a	feedback	poldrack-single-stim	s648	False
59.341	4.589	4.589	63.93	1	PA_without_intermediate	test	ward_and_allport	71	0.0	4.589	to_hand	poldrack-single-stim	s648	False
63.931	0.1	0.553	64.484	0	PA_without_intermediate	test	ward_and_allport	82	0.0	0.553	to_board	poldrack-single-stim	s648	False
64.486	0.1	0.438	64.924	0	PA_without_intermediate	test	ward_and_allport	71	0.0	0.438	to_hand	poldrack-single-stim	s648	False
64.925	0.1	0.481	65.406	0	PA_without_intermediate	test	ward_and_allport	89	0.0	0.481	to_board	poldrack-single-stim	s648	False
65.407	0.1	0.574	65.981	0	PA_without_intermediate	test	ward_and_allport	71	0.0	0.574	to_hand	poldrack-single-stim	s648	False
65.983	0.1	0.457	66.44	0	PA_without_intermediate	test	ward_and_allport	82	0.0	0.457	to_board	poldrack-single-stim	s648	False
66.444	1.0	3.088	66.443	0	PA_without_intermediate	test	ward_and_allport	-1	0.0	n/a	feedback	poldrack-single-stim	s648	False
69.535	4.107	4.107	73.642	1	PA_with_intermediate	test	ward_and_allport	71	1.0	4.107	to_hand	poldrack-single-stim	s648	False
73.644	0.1	0.417	74.061	0	PA_with_intermediate	test	ward_and_allport	89	1.0	0.417	to_board	poldrack-single-stim	s648	False
74.064	0.1	0.548	74.612	0	PA_with_intermediate	test	ward_and_allport	71	1.0	0.548	to_hand	poldrack-single-stim	s648	False
74.613	0.1	0.445	75.058	0	PA_with_intermediate	test	ward_and_allport	82	1.0	0.445	to_board	poldrack-single-stim	s648	False
75.061	0.1	0.508	75.569	0	PA_with_intermediate	test	ward_and_allport	89	1.0	0.508	to_hand	poldrack-single-stim	s648	False
75.571	0.1	0.86	76.431	0	PA_with_intermediate	test	ward_and_allport	82	1.0	0.86	to_board	poldrack-single-stim	s648	False
76.435	1.0	2.0	76.434	0	PA_with_intermediate	test	ward_and_allport	-1	1.0	n/a	feedback	poldrack-single-stim	s648	False
78.437	6.238	6.238	84.675	1	PA_without_intermediate	test	ward_and_allport	89	2.0	6.238	to_hand	poldrack-single-stim	s648	False
84.676	0.1	0.843	85.519	0	PA_without_intermediate	test	ward_and_allport	71	2.0	0.843	to_board	poldrack-single-stim	s648	False
85.523	0.1	0.83	86.353	0	PA_without_intermediate	test	ward_and_allport	89	2.0	0.83	to_hand	poldrack-single-stim	s648	False
86.355	0.1	0.491	86.846	0	PA_without_intermediate	test	ward_and_allport	71	2.0	0.491	to_board	poldrack-single-stim	s648	False
86.848	0.1	0.801	87.649	0	PA_without_intermediate	test	ward_and_allport	89	2.0	0.801	to_hand	poldrack-single-stim	s648	False
87.65	0.1	0.664	88.314	0	PA_without_intermediate	test	ward_and_allport	82	2.0	0.664	to_board	poldrack-single-stim	s648	False
88.318	1.0	2.0	88.317	0	PA_without_intermediate	test	ward_and_allport	-1	2.0	n/a	feedback	poldrack-single-stim	s648	False
90.322	5.388	5.388	95.71	1	PA_without_intermediate	test	ward_and_allport	82	3.0	5.388	to_hand	poldrack-single-stim	s648	False
95.711	0.1	0.785	96.496	0	PA_without_intermediate	test	ward_and_allport	89	3.0	0.785	to_board	poldrack-single-stim	s648	False
96.499	0.1	0.486	96.985	0	PA_without_intermediate	test	ward_and_allport	82	3.0	0.486	to_hand	poldrack-single-stim	s648	False
96.986	0.1	0.648	97.634	0	PA_without_intermediate	test	ward_and_allport	89	3.0	0.648	to_board	poldrack-single-stim	s648	False
97.637	0.1	0.319	97.956	0	PA_without_intermediate	test	ward_and_allport	89	3.0	0.319	to_hand	poldrack-single-stim	s648	False
97.957	0.1	0.811	98.768	0	PA_without_intermediate	test	ward_and_allport	89	3.0	0.811	to_board	poldrack-single-stim	s648	False
98.772	0.1	1.867	100.639	0	PA_without_intermediate	test	ward_and_allport	82	3.0	1.867	to_hand	poldrack-single-stim	s648	False
100.641	0.1	0.45	101.091	0	PA_without_intermediate	test	ward_and_allport	71	3.0	0.45	to_board	poldrack-single-stim	s648	False
101.095	1.0	2.0	101.094	0	PA_without_intermediate	test	ward_and_allport	-1	3.0	n/a	feedback	poldrack-single-stim	s648	False
103.099	6.097	6.097	109.196	1	PA_with_intermediate	test	ward_and_allport	82	4.0	6.097	to_hand	poldrack-single-stim	s648	False
109.198	0.1	0.635	109.833	0	PA_with_intermediate	test	ward_and_allport	89	4.0	0.635	to_board	poldrack-single-stim	s648	False
109.836	0.1	2.423	112.259	0	PA_with_intermediate	test	ward_and_allport	82	4.0	2.423	to_hand	poldrack-single-stim	s648	False
112.26	0.1	1.0	113.26	0	PA_with_intermediate	test	ward_and_allport	71	4.0	1.0	to_board	poldrack-single-stim	s648	False
113.264	0.1	1.495	114.759	0	PA_with_intermediate	test	ward_and_allport	89	4.0	1.495	to_hand	poldrack-single-stim	s648	False
114.761	0.1	0.429	115.19	0	PA_with_intermediate	test	ward_and_allport	71	4.0	0.429	to_board	poldrack-single-stim	s648	False
115.195	1.0	2.544	115.194	0	PA_with_intermediate	test	ward_and_allport	-1	4.0	n/a	feedback	poldrack-single-stim	s648	False
117.742	5.983	5.983	123.725	1	PA_without_intermediate	test	ward_and_allport	89	5.0	5.983	to_hand	poldrack-single-stim	s648	False
123.726	0.1	0.836	124.562	0	PA_without_intermediate	test	ward_and_allport	71	5.0	0.836	to_board	poldrack-single-stim	s648	False
124.565	0.1	0.526	125.091	0	PA_without_intermediate	test	ward_and_allport	89	5.0	0.526	to_hand	poldrack-single-stim	s648	False
125.092	0.1	0.554	125.646	0	PA_without_intermediate	test	ward_and_allport	82	5.0	0.554	to_board	poldrack-single-stim	s648	False
125.649	0.1	0.611	126.26	0	PA_without_intermediate	test	ward_and_allport	89	5.0	0.611	to_hand	poldrack-single-stim	s648	False
126.262	0.1	0.384	126.646	0	PA_without_intermediate	test	ward_and_allport	71	5.0	0.384	to_board	poldrack-single-stim	s648	False
126.65	1.0	2.272	126.649	0	PA_without_intermediate	test	ward_and_allport	-1	5.0	n/a	feedback	poldrack-single-stim	s648	False
128.927	4.142	4.142	133.069	1	PA_with_intermediate	test	ward_and_allport	89	6.0	4.142	to_hand	poldrack-single-stim	s648	False
133.071	0.1	0.494	133.565	0	PA_with_intermediate	test	ward_and_allport	71	6.0	0.494	to_board	poldrack-single-stim	s648	False
133.568	0.1	0.428	133.996	0	PA_with_intermediate	test	ward_and_allport	89	6.0	0.428	to_hand	poldrack-single-stim	s648	False
133.998	0.1	0.625	134.623	0	PA_with_intermediate	test	ward_and_allport	82	6.0	0.625	to_board	poldrack-single-stim	s648	False
134.626	0.1	0.485	135.111	0	PA_with_intermediate	test	ward_and_allport	71	6.0	0.485	to_hand	poldrack-single-stim	s648	False
135.113	0.1	0.467	135.58	0	PA_with_intermediate	test	ward_and_allport	82	6.0	0.467	to_board	poldrack-single-stim	s648	False
135.584	1.0	4.04	135.583	0	PA_with_intermediate	test	ward_and_allport	-1	6.0	n/a	feedback	poldrack-single-stim	s648	False
139.628	6.281	6.281	145.909	1	PA_with_intermediate	test	ward_and_allport	82	7.0	6.281	to_hand	poldrack-single-stim	s648	False
145.909	0.1	0.765	146.674	0	PA_with_intermediate	test	ward_and_allport	89	7.0	0.765	to_board	poldrack-single-stim	s648	False
146.678	0.1	1.015	147.693	0	PA_with_intermediate	test	ward_and_allport	82	7.0	1.015	to_hand	poldrack-single-stim	s648	False
147.695	0.1	0.517	148.212	0	PA_with_intermediate	test	ward_and_allport	71	7.0	0.517	to_board	poldrack-single-stim	s648	False
148.216	0.1	0.855	149.071	0	PA_with_intermediate	test	ward_and_allport	89	7.0	0.855	to_hand	poldrack-single-stim	s648	False
149.072	0.1	0.421	149.493	0	PA_with_intermediate	test	ward_and_allport	82	7.0	0.421	to_board	poldrack-single-stim	s648	False
149.498	1.0	2.272	149.497	0	PA_with_intermediate	test	ward_and_allport	-1	7.0	n/a	feedback	poldrack-single-stim	s648	False
151.775	4.423	4.423	156.198	1	PA_with_intermediate	test	ward_and_allport	71	8.0	4.423	to_hand	poldrack-single-stim	s648	False
156.198	0.1	0.695	156.893	0	PA_with_intermediate	test	ward_and_allport	82	8.0	0.695	to_board	poldrack-single-stim	s648	False
156.897	0.1	1.043	157.94	0	PA_with_intermediate	test	ward_and_allport	71	8.0	1.043	to_hand	poldrack-single-stim	s648	False
157.94	0.1	0.724	158.664	0	PA_with_intermediate	test	ward_and_allport	89	8.0	0.724	to_board	poldrack-single-stim	s648	False
158.668	0.1	0.182	158.85	0	PA_with_intermediate	test	ward_and_allport	89	8.0	0.182	to_hand	poldrack-single-stim	s648	False
158.851	0.1	0.696	159.547	0	PA_with_intermediate	test	ward_and_allport	89	8.0	0.696	to_board	poldrack-single-stim	s648	False
159.55	0.1	0.633	160.183	0	PA_with_intermediate	test	ward_and_allport	82	8.0	0.633	to_hand	poldrack-single-stim	s648	False
160.183	0.1	0.673	160.856	0	PA_with_intermediate	test	ward_and_allport	89	8.0	0.673	to_board	poldrack-single-stim	s648	False
160.862	1.0	2.136	160.861	0	PA_with_intermediate	test	ward_and_allport	-1	8.0	n/a	feedback	poldrack-single-stim	s648	False
163.003	7.325	7.325	170.328	1	PA_with_intermediate	test	ward_and_allport	71	9.0	7.325	to_hand	poldrack-single-stim	s648	False
170.329	0.1	0.987	171.316	0	PA_with_intermediate	test	ward_and_allport	89	9.0	0.987	to_board	poldrack-single-stim	s648	False
171.319	0.1	0.791	172.11	0	PA_with_intermediate	test	ward_and_allport	71	9.0	0.791	to_hand	poldrack-single-stim	s648	False
172.111	0.1	0.915	173.026	0	PA_with_intermediate	test	ward_and_allport	82	9.0	0.915	to_board	poldrack-single-stim	s648	False
173.03	0.1	0.525	173.555	0	PA_with_intermediate	test	ward_and_allport	89	9.0	0.525	to_hand	poldrack-single-stim	s648	False
173.557	0.1	0.369	173.926	0	PA_with_intermediate	test	ward_and_allport	71	9.0	0.369	to_board	poldrack-single-stim	s648	False
173.931	1.0	2.0	173.93	0	PA_with_intermediate	test	ward_and_allport	-1	9.0	n/a	feedback	poldrack-single-stim	s648	False
175.935	3.602	3.602	179.537	1	PA_with_intermediate	test	ward_and_allport	82	10.0	3.602	to_hand	poldrack-single-stim	s648	False
179.538	0.1	0.579	180.117	0	PA_with_intermediate	test	ward_and_allport	71	10.0	0.579	to_board	poldrack-single-stim	s648	False
180.12	0.1	0.505	180.625	0	PA_with_intermediate	test	ward_and_allport	82	10.0	0.505	to_hand	poldrack-single-stim	s648	False
180.627	0.1	0.52	181.147	0	PA_with_intermediate	test	ward_and_allport	89	10.0	0.52	to_board	poldrack-single-stim	s648	False
181.151	0.1	0.382	181.533	0	PA_with_intermediate	test	ward_and_allport	71	10.0	0.382	to_hand	poldrack-single-stim	s648	False
181.534	0.1	0.422	181.956	0	PA_with_intermediate	test	ward_and_allport	82	10.0	0.422	to_board	poldrack-single-stim	s648	False
181.962	1.0	2.0	181.961	0	PA_with_intermediate	test	ward_and_allport	-1	10.0	n/a	feedback	poldrack-single-stim	s648	False
183.967	5.205	5.205	189.172	1	PA_without_intermediate	test	ward_and_allport	89	11.0	5.205	to_hand	poldrack-single-stim	s648	False
189.174	0.1	0.564	189.738	0	PA_without_intermediate	test	ward_and_allport	71	11.0	0.564	to_board	poldrack-single-stim	s648	False
189.743	0.1	0.487	190.23	0	PA_without_intermediate	test	ward_and_allport	89	11.0	0.487	to_hand	poldrack-single-stim	s648	False
190.232	0.1	0.368	190.6	0	PA_without_intermediate	test	ward_and_allport	71	11.0	0.368	to_board	poldrack-single-stim	s648	False
190.605	0.1	0.699	191.304	0	PA_without_intermediate	test	ward_and_allport	89	11.0	0.699	to_hand	poldrack-single-stim	s648	False
191.304	0.1	0.379	191.683	0	PA_without_intermediate	test	ward_and_allport	82	11.0	0.379	to_board	poldrack-single-stim	s648	False
191.688	1.0	2.408	191.687	0	PA_without_intermediate	test	ward_and_allport	-1	11.0	n/a	feedback	poldrack-single-stim	s648	False
194.102	4.668	4.668	198.77	1	PA_with_intermediate	test	ward_and_allport	82	12.0	4.668	to_hand	poldrack-single-stim	s648	False
198.772	0.1	0.495	199.267	0	PA_with_intermediate	test	ward_and_allport	89	12.0	0.495	to_board	poldrack-single-stim	s648	False
199.272	0.1	0.43	199.702	0	PA_with_intermediate	test	ward_and_allport	82	12.0	0.43	to_hand	poldrack-single-stim	s648	False
199.703	0.1	0.567	200.27	0	PA_with_intermediate	test	ward_and_allport	71	12.0	0.567	to_board	poldrack-single-stim	s648	False
200.275	0.1	0.481	200.756	0	PA_with_intermediate	test	ward_and_allport	89	12.0	0.481	to_hand	poldrack-single-stim	s648	False
200.757	0.1	0.358	201.115	0	PA_with_intermediate	test	ward_and_allport	71	12.0	0.358	to_board	poldrack-single-stim	s648	False
201.121	1.0	3.768	201.12	0	PA_with_intermediate	test	ward_and_allport	-1	12.0	n/a	feedback	poldrack-single-stim	s648	False
204.895	7.271	7.271	212.166	1	PA_with_intermediate	test	ward_and_allport	82	13.0	7.271	to_hand	poldrack-single-stim	s648	False
212.167	0.1	0.523	212.69	0	PA_with_intermediate	test	ward_and_allport	89	13.0	0.523	to_board	poldrack-single-stim	s648	False
212.696	0.1	0.427	213.123	0	PA_with_intermediate	test	ward_and_allport	82	13.0	0.427	to_hand	poldrack-single-stim	s648	False
213.125	0.1	0.393	213.518	0	PA_with_intermediate	test	ward_and_allport	71	13.0	0.393	to_board	poldrack-single-stim	s648	False
213.522	0.1	0.421	213.943	0	PA_with_intermediate	test	ward_and_allport	89	13.0	0.421	to_hand	poldrack-single-stim	s648	False
213.945	0.1	0.464	214.409	0	PA_with_intermediate	test	ward_and_allport	82	13.0	0.464	to_board	poldrack-single-stim	s648	False
214.415	1.0	2.68	214.414	0	PA_with_intermediate	test	ward_and_allport	-1	13.0	n/a	feedback	poldrack-single-stim	s648	False
217.1	3.803	3.803	220.903	1	PA_without_intermediate	test	ward_and_allport	89	14.0	3.803	to_hand	poldrack-single-stim	s648	False
220.904	0.1	0.447	221.351	0	PA_without_intermediate	test	ward_and_allport	82	14.0	0.447	to_board	poldrack-single-stim	s648	False
221.355	0.1	0.962	222.317	0	PA_without_intermediate	test	ward_and_allport	89	14.0	0.962	to_hand	poldrack-single-stim	s648	False
222.319	0.1	0.424	222.743	0	PA_without_intermediate	test	ward_and_allport	82	14.0	0.424	to_board	poldrack-single-stim	s648	False
222.748	0.1	0.465	223.213	0	PA_without_intermediate	test	ward_and_allport	89	14.0	0.465	to_hand	poldrack-single-stim	s648	False
223.214	0.1	0.354	223.568	0	PA_without_intermediate	test	ward_and_allport	71	14.0	0.354	to_board	poldrack-single-stim	s648	False
223.575	1.0	3.224	223.574	0	PA_without_intermediate	test	ward_and_allport	-1	14.0	n/a	feedback	poldrack-single-stim	s648	False
231.807	7.691	7.691	239.498	1	PA_without_intermediate	test	ward_and_allport	71	15.0	7.691	to_hand	poldrack-single-stim	s648	False
239.499	0.1	0.818	240.317	0	PA_without_intermediate	test	ward_and_allport	82	15.0	0.818	to_board	poldrack-single-stim	s648	False
240.322	0.1	0.795	241.117	0	PA_without_intermediate	test	ward_and_allport	71	15.0	0.795	to_hand	poldrack-single-stim	s648	False
241.118	0.1	0.709	241.827	0	PA_without_intermediate	test	ward_and_allport	89	15.0	0.709	to_board	poldrack-single-stim	s648	False
241.832	0.1	0.716	242.548	0	PA_without_intermediate	test	ward_and_allport	71	15.0	0.716	to_hand	poldrack-single-stim	s648	False
242.55	0.1	0.68	243.23	0	PA_without_intermediate	test	ward_and_allport	82	15.0	0.68	to_board	poldrack-single-stim	s648	False
243.236	1.0	3.36	243.235	0	PA_without_intermediate	test	ward_and_allport	-1	15.0	n/a	feedback	poldrack-single-stim	s648	False
246.601	4.52	4.52	251.121	1	PA_without_intermediate	test	ward_and_allport	82	16.0	4.52	to_hand	poldrack-single-stim	s648	False
251.123	0.1	0.576	251.699	0	PA_without_intermediate	test	ward_and_allport	89	16.0	0.576	to_board	poldrack-single-stim	s648	False
251.703	0.1	0.49	252.193	0	PA_without_intermediate	test	ward_and_allport	82	16.0	0.49	to_hand	poldrack-single-stim	s648	False
252.194	0.1	0.507	252.701	0	PA_without_intermediate	test	ward_and_allport	89	16.0	0.507	to_board	poldrack-single-stim	s648	False
252.706	0.1	0.43	253.136	0	PA_without_intermediate	test	ward_and_allport	82	16.0	0.43	to_hand	poldrack-single-stim	s648	False
253.137	0.1	0.322	253.459	0	PA_without_intermediate	test	ward_and_allport	71	16.0	0.322	to_board	poldrack-single-stim	s648	False
253.465	1.0	2.0	253.464	0	PA_without_intermediate	test	ward_and_allport	-1	16.0	n/a	feedback	poldrack-single-stim	s648	False
255.469	3.463	3.463	258.932	1	PA_without_intermediate	test	ward_and_allport	89	17.0	3.463	to_hand	poldrack-single-stim	s648	False
258.934	0.1	0.161	259.095	0	PA_without_intermediate	test	ward_and_allport	89	17.0	0.161	to_board	poldrack-single-stim	s648	False
259.099	0.1	0.906	260.005	0	PA_without_intermediate	test	ward_and_allport	89	17.0	0.906	to_hand	poldrack-single-stim	s648	False
260.007	0.1	0.54	260.547	0	PA_without_intermediate	test	ward_and_allport	71	17.0	0.54	to_board	poldrack-single-stim	s648	False
260.552	0.1	0.697	261.249	0	PA_without_intermediate	test	ward_and_allport	89	17.0	0.697	to_hand	poldrack-single-stim	s648	False
261.25	0.1	0.587	261.837	0	PA_without_intermediate	test	ward_and_allport	82	17.0	0.587	to_board	poldrack-single-stim	s648	False
261.842	0.1	0.491	262.333	0	PA_without_intermediate	test	ward_and_allport	89	17.0	0.491	to_hand	poldrack-single-stim	s648	False
262.334	0.1	0.363	262.697	0	PA_without_intermediate	test	ward_and_allport	71	17.0	0.363	to_board	poldrack-single-stim	s648	False
262.703	1.0	2.408	262.702	0	PA_without_intermediate	test	ward_and_allport	-1	17.0	n/a	feedback	poldrack-single-stim	s648	False
265.118	2.966	2.966	268.084	1	PA_with_intermediate	test	ward_and_allport	89	18.0	2.966	to_hand	poldrack-single-stim	s648	False
268.085	0.1	0.464	268.549	0	PA_with_intermediate	test	ward_and_allport	82	18.0	0.464	to_board	poldrack-single-stim	s648	False
268.555	0.1	0.47	269.025	0	PA_with_intermediate	test	ward_and_allport	89	18.0	0.47	to_hand	poldrack-single-stim	s648	False
269.026	0.1	0.419	269.445	0	PA_with_intermediate	test	ward_and_allport	71	18.0	0.419	to_board	poldrack-single-stim	s648	False
269.45	0.1	0.586	270.036	0	PA_with_intermediate	test	ward_and_allport	82	18.0	0.586	to_hand	poldrack-single-stim	s648	False
270.037	0.1	0.399	270.436	0	PA_with_intermediate	test	ward_and_allport	71	18.0	0.399	to_board	poldrack-single-stim	s648	False
270.442	1.0	2.136	270.441	0	PA_with_intermediate	test	ward_and_allport	-1	18.0	n/a	feedback	poldrack-single-stim	s648	False
272.585	4.207	4.207	276.792	1	PA_without_intermediate	test	ward_and_allport	71	19.0	4.207	to_hand	poldrack-single-stim	s648	False
276.794	0.1	0.486	277.28	0	PA_without_intermediate	test	ward_and_allport	89	19.0	0.486	to_board	poldrack-single-stim	s648	False
277.285	0.1	0.381	277.666	0	PA_without_intermediate	test	ward_and_allport	71	19.0	0.381	to_hand	poldrack-single-stim	s648	False
277.667	0.1	1.081	278.748	0	PA_without_intermediate	test	ward_and_allport	82	19.0	1.081	to_board	poldrack-single-stim	s648	False
278.754	0.1	0.585	279.339	0	PA_without_intermediate	test	ward_and_allport	71	19.0	0.585	to_hand	poldrack-single-stim	s648	False
279.341	0.1	0.396	279.737	0	PA_without_intermediate	test	ward_and_allport	89	19.0	0.396	to_board	poldrack-single-stim	s648	False
279.744	1.0	5.128	279.743	0	PA_without_intermediate	test	ward_and_allport	-1	19.0	n/a	feedback	poldrack-single-stim	s648	False
284.877	6.802	6.802	291.679	1	PA_without_intermediate	test	ward_and_allport	82	20.0	6.802	to_hand	poldrack-single-stim	s648	False
291.681	0.1	0.532	292.213	0	PA_without_intermediate	test	ward_and_allport	89	20.0	0.532	to_board	poldrack-single-stim	s648	False
292.218	0.1	0.633	292.851	0	PA_without_intermediate	test	ward_and_allport	82	20.0	0.633	to_hand	poldrack-single-stim	s648	False
292.853	0.1	0.741	293.594	0	PA_without_intermediate	test	ward_and_allport	71	20.0	0.741	to_board	poldrack-single-stim	s648	False
293.599	0.1	0.562	294.161	0	PA_without_intermediate	test	ward_and_allport	82	20.0	0.562	to_hand	poldrack-single-stim	s648	False
294.162	0.1	0.37	294.532	0	PA_without_intermediate	test	ward_and_allport	89	20.0	0.37	to_board	poldrack-single-stim	s648	False
294.541	1.0	2.136	294.54	0	PA_without_intermediate	test	ward_and_allport	-1	20.0	n/a	feedback	poldrack-single-stim	s648	False
296.684	5.299	5.299	301.983	1	PA_without_intermediate	test	ward_and_allport	82	21.0	5.299	to_hand	poldrack-single-stim	s648	False
301.985	0.1	0.367	302.352	0	PA_without_intermediate	test	ward_and_allport	71	21.0	0.367	to_board	poldrack-single-stim	s648	False
302.358	0.1	0.43	302.788	0	PA_without_intermediate	test	ward_and_allport	82	21.0	0.43	to_hand	poldrack-single-stim	s648	False
302.79	0.1	0.398	303.188	0	PA_without_intermediate	test	ward_and_allport	71	21.0	0.398	to_board	poldrack-single-stim	s648	False
303.194	0.1	0.391	303.585	0	PA_without_intermediate	test	ward_and_allport	82	21.0	0.391	to_hand	poldrack-single-stim	s648	False
303.587	0.1	0.391	303.978	0	PA_without_intermediate	test	ward_and_allport	89	21.0	0.391	to_board	poldrack-single-stim	s648	False
303.985	1.0	5.264	303.984	0	PA_without_intermediate	test	ward_and_allport	-1	21.0	n/a	feedback	poldrack-single-stim	s648	False
309.257	4.556	4.556	313.813	1	PA_with_intermediate	test	ward_and_allport	89	22.0	4.556	to_hand	poldrack-single-stim	s648	False
313.813	0.1	0.198	314.011	0	PA_with_intermediate	test	ward_and_allport	89	22.0	0.198	to_board	poldrack-single-stim	s648	False
314.018	0.1	1.042	315.06	0	PA_with_intermediate	test	ward_and_allport	89	22.0	1.042	to_hand	poldrack-single-stim	s648	False
315.062	0.1	0.561	315.623	0	PA_with_intermediate	test	ward_and_allport	82	22.0	0.561	to_board	poldrack-single-stim	s648	False
315.629	0.1	0.726	316.355	0	PA_with_intermediate	test	ward_and_allport	89	22.0	0.726	to_hand	poldrack-single-stim	s648	False
316.357	0.1	0.201	316.558	0	PA_with_intermediate	test	ward_and_allport	89	22.0	0.201	to_board	poldrack-single-stim	s648	False
316.564	0.1	0.863	317.427	0	PA_with_intermediate	test	ward_and_allport	89	22.0	0.863	to_hand	poldrack-single-stim	s648	False
317.429	0.1	0.54	317.969	0	PA_with_intermediate	test	ward_and_allport	71	22.0	0.54	to_board	poldrack-single-stim	s648	False
317.975	0.1	0.872	318.847	0	PA_with_intermediate	test	ward_and_allport	82	22.0	0.872	to_hand	poldrack-single-stim	s648	False
318.849	0.1	0.479	319.328	0	PA_with_intermediate	test	ward_and_allport	89	22.0	0.479	to_board	poldrack-single-stim	s648	False
319.336	1.0	4.04	319.335	0	PA_with_intermediate	test	ward_and_allport	-1	22.0	n/a	feedback	poldrack-single-stim	s648	False
323.383	3.095	3.095	326.478	1	PA_with_intermediate	test	ward_and_allport	89	23.0	3.095	to_hand	poldrack-single-stim	s648	False
326.48	0.1	0.522	327.002	0	PA_with_intermediate	test	ward_and_allport	71	23.0	0.522	to_board	poldrack-single-stim	s648	False
327.008	0.1	0.432	327.44	0	PA_with_intermediate	test	ward_and_allport	89	23.0	0.432	to_hand	poldrack-single-stim	s648	False
327.44	0.1	0.527	327.967	0	PA_with_intermediate	test	ward_and_allport	82	23.0	0.527	to_board	poldrack-single-stim	s648	False
327.974	0.1	1.308	329.282	0	PA_with_intermediate	test	ward_and_allport	71	23.0	1.308	to_hand	poldrack-single-stim	s648	False
329.283	0.1	0.446	329.729	0	PA_with_intermediate	test	ward_and_allport	82	23.0	0.446	to_board	poldrack-single-stim	s648	False
329.737	1.0	2.136	329.736	0	PA_with_intermediate	test	ward_and_allport	-1	23.0	n/a	feedback	poldrack-single-stim	s648	False
331.881	4.075	4.075	335.956	1	PA_with_intermediate	test	ward_and_allport	89	24.0	4.075	to_hand	poldrack-single-stim	s648	False
335.957	0.1	0.625	336.582	0	PA_with_intermediate	test	ward_and_allport	82	24.0	0.625	to_board	poldrack-single-stim	s648	False
336.589	0.1	0.429	337.018	0	PA_with_intermediate	test	ward_and_allport	89	24.0	0.429	to_hand	poldrack-single-stim	s648	False
337.019	0.1	0.454	337.473	0	PA_with_intermediate	test	ward_and_allport	71	24.0	0.454	to_board	poldrack-single-stim	s648	False
337.48	0.1	0.398	337.878	0	PA_with_intermediate	test	ward_and_allport	82	24.0	0.398	to_hand	poldrack-single-stim	s648	False
337.879	0.1	0.378	338.257	0	PA_with_intermediate	test	ward_and_allport	89	24.0	0.378	to_board	poldrack-single-stim	s648	False
338.264	1.0	2.408	338.263	0	PA_with_intermediate	test	ward_and_allport	-1	24.0	n/a	feedback	poldrack-single-stim	s648	False
340.68	6.703	6.703	347.383	1	PA_without_intermediate	test	ward_and_allport	71	25.0	6.703	to_hand	poldrack-single-stim	s648	False
347.385	0.1	0.508	347.893	0	PA_without_intermediate	test	ward_and_allport	89	25.0	0.508	to_board	poldrack-single-stim	s648	False
347.9	0.1	0.147	348.047	0	PA_without_intermediate	test	ward_and_allport	89	25.0	0.147	to_hand	poldrack-single-stim	s648	False
348.049	0.1	0.181	348.23	0	PA_without_intermediate	test	ward_and_allport	71	25.0	0.181	to_board	poldrack-single-stim	s648	False
348.236	0.1	0.972	349.208	0	PA_without_intermediate	test	ward_and_allport	71	25.0	0.972	to_hand	poldrack-single-stim	s648	False
349.21	0.1	0.554	349.764	0	PA_without_intermediate	test	ward_and_allport	89	25.0	0.554	to_board	poldrack-single-stim	s648	False
349.771	0.1	0.81	350.581	0	PA_without_intermediate	test	ward_and_allport	71	25.0	0.81	to_hand	poldrack-single-stim	s648	False
350.583	0.1	0.442	351.025	0	PA_without_intermediate	test	ward_and_allport	82	25.0	0.442	to_board	poldrack-single-stim	s648	False
351.031	0.1	0.592	351.623	0	PA_without_intermediate	test	ward_and_allport	71	25.0	0.592	to_hand	poldrack-single-stim	s648	False
351.624	0.1	0.421	352.045	0	PA_without_intermediate	test	ward_and_allport	89	25.0	0.421	to_board	poldrack-single-stim	s648	False
352.054	1.0	2.68	352.053	0	PA_without_intermediate	test	ward_and_allport	-1	25.0	n/a	feedback	poldrack-single-stim	s648	False
354.742	6.633	6.633	361.375	1	PA_with_intermediate	test	ward_and_allport	71	26.0	6.633	to_hand	poldrack-single-stim	s648	False
361.376	0.1	0.506	361.882	0	PA_with_intermediate	test	ward_and_allport	89	26.0	0.506	to_board	poldrack-single-stim	s648	False
361.888	0.1	0.195	362.083	0	PA_with_intermediate	test	ward_and_allport	89	26.0	0.195	to_hand	poldrack-single-stim	s648	False
362.084	0.1	0.207	362.291	0	PA_with_intermediate	test	ward_and_allport	71	26.0	0.207	to_board	poldrack-single-stim	s648	False
362.299	0.1	0.877	363.176	0	PA_with_intermediate	test	ward_and_allport	71	26.0	0.877	to_hand	poldrack-single-stim	s648	False
363.178	0.1	0.479	363.657	0	PA_with_intermediate	test	ward_and_allport	89	26.0	0.479	to_board	poldrack-single-stim	s648	False
363.665	0.1	1.31	364.975	0	PA_with_intermediate	test	ward_and_allport	71	26.0	1.31	to_hand	poldrack-single-stim	s648	False
364.977	0.1	0.496	365.473	0	PA_with_intermediate	test	ward_and_allport	82	26.0	0.496	to_board	poldrack-single-stim	s648	False
365.48	0.1	0.664	366.144	0	PA_with_intermediate	test	ward_and_allport	89	26.0	0.664	to_hand	poldrack-single-stim	s648	False
366.146	0.1	0.542	366.688	0	PA_with_intermediate	test	ward_and_allport	71	26.0	0.542	to_board	poldrack-single-stim	s648	False
366.698	1.0	4.72	366.697	0	PA_with_intermediate	test	ward_and_allport	-1	26.0	n/a	feedback	poldrack-single-stim	s648	False
371.427	3.052	3.052	374.479	1	PA_without_intermediate	test	ward_and_allport	71	27.0	3.052	to_hand	poldrack-single-stim	s648	False
374.48	0.1	0.593	375.073	0	PA_without_intermediate	test	ward_and_allport	89	27.0	0.593	to_board	poldrack-single-stim	s648	False
375.08	0.1	0.713	375.793	0	PA_without_intermediate	test	ward_and_allport	71	27.0	0.713	to_hand	poldrack-single-stim	s648	False
375.795	0.1	0.521	376.316	0	PA_without_intermediate	test	ward_and_allport	89	27.0	0.521	to_board	poldrack-single-stim	s648	False
376.324	0.1	0.909	377.233	0	PA_without_intermediate	test	ward_and_allport	71	27.0	0.909	to_hand	poldrack-single-stim	s648	False
377.235	0.1	0.473	377.708	0	PA_without_intermediate	test	ward_and_allport	82	27.0	0.473	to_board	poldrack-single-stim	s648	False
377.717	1.0	3.224	377.716	0	PA_without_intermediate	test	ward_and_allport	-1	27.0	n/a	feedback	poldrack-single-stim	s648	False
380.95	3.794	3.794	384.744	1	PA_without_intermediate	test	ward_and_allport	82	28.0	3.794	to_hand	poldrack-single-stim	s648	False
384.746	0.1	0.73	385.476	0	PA_without_intermediate	test	ward_and_allport	71	28.0	0.73	to_board	poldrack-single-stim	s648	False
385.482	0.1	0.727	386.209	0	PA_without_intermediate	test	ward_and_allport	82	28.0	0.727	to_hand	poldrack-single-stim	s648	False
386.21	0.1	0.699	386.909	0	PA_without_intermediate	test	ward_and_allport	71	28.0	0.699	to_board	poldrack-single-stim	s648	False
386.917	0.1	0.75	387.667	0	PA_without_intermediate	test	ward_and_allport	82	28.0	0.75	to_hand	poldrack-single-stim	s648	False
387.668	0.1	0.653	388.321	0	PA_without_intermediate	test	ward_and_allport	89	28.0	0.653	to_board	poldrack-single-stim	s648	False
388.329	1.0	2.272	388.328	0	PA_without_intermediate	test	ward_and_allport	-1	28.0	n/a	feedback	poldrack-single-stim	s648	False
390.609	3.442	3.442	394.051	1	PA_with_intermediate	test	ward_and_allport	71	29.0	3.442	to_hand	poldrack-single-stim	s648	False
394.052	0.1	0.575	394.627	0	PA_with_intermediate	test	ward_and_allport	82	29.0	0.575	to_board	poldrack-single-stim	s648	False
394.633	0.1	0.449	395.082	0	PA_with_intermediate	test	ward_and_allport	71	29.0	0.449	to_hand	poldrack-single-stim	s648	False
395.084	0.1	0.455	395.539	0	PA_with_intermediate	test	ward_and_allport	89	29.0	0.455	to_board	poldrack-single-stim	s648	False
395.547	0.1	0.413	395.96	0	PA_with_intermediate	test	ward_and_allport	82	29.0	0.413	to_hand	poldrack-single-stim	s648	False
395.96	0.1	0.465	396.425	0	PA_with_intermediate	test	ward_and_allport	89	29.0	0.465	to_board	poldrack-single-stim	s648	False
396.434	1.0	3.632	396.433	0	PA_with_intermediate	test	ward_and_allport	-1	29.0	n/a	feedback	poldrack-single-stim	s648	False
405.078	2.456	2.456	407.534	1	PA_without_intermediate	test	ward_and_allport	71	30.0	2.456	to_hand	poldrack-single-stim	s648	False
407.535	0.1	0.512	408.047	0	PA_without_intermediate	test	ward_and_allport	82	30.0	0.512	to_board	poldrack-single-stim	s648	False
408.056	0.1	0.432	408.488	0	PA_without_intermediate	test	ward_and_allport	71	30.0	0.432	to_hand	poldrack-single-stim	s648	False
408.49	0.1	0.406	408.896	0	PA_without_intermediate	test	ward_and_allport	82	30.0	0.406	to_board	poldrack-single-stim	s648	False
408.906	0.1	0.452	409.358	0	PA_without_intermediate	test	ward_and_allport	71	30.0	0.452	to_hand	poldrack-single-stim	s648	False
409.36	0.1	0.378	409.738	0	PA_without_intermediate	test	ward_and_allport	89	30.0	0.378	to_board	poldrack-single-stim	s648	False
409.75	1.0	2.408	409.749	0	PA_without_intermediate	test	ward_and_allport	-1	30.0	n/a	feedback	poldrack-single-stim	s648	False
412.167	4.591	4.591	416.758	1	PA_without_intermediate	test	ward_and_allport	82	31.0	4.591	to_hand	poldrack-single-stim	s648	False
416.759	0.1	0.912	417.671	0	PA_without_intermediate	test	ward_and_allport	71	31.0	0.912	to_board	poldrack-single-stim	s648	False
417.68	0.1	1.4	419.08	0	PA_without_intermediate	test	ward_and_allport	82	31.0	1.4	to_hand	poldrack-single-stim	s648	False
419.081	0.1	0.859	419.94	0	PA_without_intermediate	test	ward_and_allport	89	31.0	0.859	to_board	poldrack-single-stim	s648	False
419.949	0.1	0.778	420.727	0	PA_without_intermediate	test	ward_and_allport	82	31.0	0.778	to_hand	poldrack-single-stim	s648	False
420.729	0.1	0.631	421.36	0	PA_without_intermediate	test	ward_and_allport	71	31.0	0.631	to_board	poldrack-single-stim	s648	False
421.371	1.0	2.0	421.37	0	PA_without_intermediate	test	ward_and_allport	-1	31.0	n/a	feedback	poldrack-single-stim	s648	False
423.38	5.732	5.732	429.112	1	PA_with_intermediate	test	ward_and_allport	82	32.0	5.732	to_hand	poldrack-single-stim	s648	False
429.113	0.1	0.542	429.655	0	PA_with_intermediate	test	ward_and_allport	71	32.0	0.542	to_board	poldrack-single-stim	s648	False
429.66	0.1	0.493	430.153	0	PA_with_intermediate	test	ward_and_allport	82	32.0	0.493	to_hand	poldrack-single-stim	s648	False
430.155	0.1	0.567	430.722	0	PA_with_intermediate	test	ward_and_allport	89	32.0	0.567	to_board	poldrack-single-stim	s648	False
430.73	0.1	0.395	431.125	0	PA_with_intermediate	test	ward_and_allport	71	32.0	0.395	to_hand	poldrack-single-stim	s648	False
431.127	0.1	0.482	431.609	0	PA_with_intermediate	test	ward_and_allport	82	32.0	0.482	to_board	poldrack-single-stim	s648	False
431.619	1.0	2.0	431.618	0	PA_with_intermediate	test	ward_and_allport	-1	32.0	n/a	feedback	poldrack-single-stim	s648	False
433.629	4.685	4.685	438.314	1	PA_with_intermediate	test	ward_and_allport	89	33.0	4.685	to_hand	poldrack-single-stim	s648	False
438.316	0.1	0.468	438.784	0	PA_with_intermediate	test	ward_and_allport	71	33.0	0.468	to_board	poldrack-single-stim	s648	False
438.794	0.1	0.433	439.227	0	PA_with_intermediate	test	ward_and_allport	89	33.0	0.433	to_hand	poldrack-single-stim	s648	False
439.228	0.1	0.47	439.698	0	PA_with_intermediate	test	ward_and_allport	82	33.0	0.47	to_board	poldrack-single-stim	s648	False
439.707	0.1	0.426	440.133	0	PA_with_intermediate	test	ward_and_allport	71	33.0	0.426	to_hand	poldrack-single-stim	s648	False
440.134	0.1	0.415	440.549	0	PA_with_intermediate	test	ward_and_allport	89	33.0	0.415	to_board	poldrack-single-stim	s648	False
440.56	1.0	2.0	440.559	0	PA_with_intermediate	test	ward_and_allport	-1	33.0	n/a	feedback	poldrack-single-stim	s648	False
442.57	4.078	4.078	446.648	1	PA_with_intermediate	test	ward_and_allport	89	34.0	4.078	to_hand	poldrack-single-stim	s648	False
446.649	0.1	0.573	447.222	0	PA_with_intermediate	test	ward_and_allport	71	34.0	0.573	to_board	poldrack-single-stim	s648	False
447.23	0.1	0.422	447.652	0	PA_with_intermediate	test	ward_and_allport	89	34.0	0.422	to_hand	poldrack-single-stim	s648	False
447.654	0.1	0.424	448.078	0	PA_with_intermediate	test	ward_and_allport	82	34.0	0.424	to_board	poldrack-single-stim	s648	False
448.086	0.1	0.604	448.69	0	PA_with_intermediate	test	ward_and_allport	71	34.0	0.604	to_hand	poldrack-single-stim	s648	False
448.691	0.1	0.456	449.147	0	PA_with_intermediate	test	ward_and_allport	89	34.0	0.456	to_board	poldrack-single-stim	s648	False
449.158	1.0	2.408	449.157	0	PA_with_intermediate	test	ward_and_allport	-1	34.0	n/a	feedback	poldrack-single-stim	s648	False
451.575	3.028	3.028	454.603	1	PA_without_intermediate	test	ward_and_allport	71	35.0	3.028	to_hand	poldrack-single-stim	s648	False
454.604	0.1	0.486	455.09	0	PA_without_intermediate	test	ward_and_allport	82	35.0	0.486	to_board	poldrack-single-stim	s648	False
455.1	0.1	0.424	455.524	0	PA_without_intermediate	test	ward_and_allport	71	35.0	0.424	to_hand	poldrack-single-stim	s648	False
455.524	0.1	0.456	455.98	0	PA_without_intermediate	test	ward_and_allport	82	35.0	0.456	to_board	poldrack-single-stim	s648	False
455.99	0.1	0.398	456.388	0	PA_without_intermediate	test	ward_and_allport	71	35.0	0.398	to_hand	poldrack-single-stim	s648	False
456.39	0.1	0.406	456.796	0	PA_without_intermediate	test	ward_and_allport	89	35.0	0.406	to_board	poldrack-single-stim	s648	False
456.804	1.0	2.816	456.803	0	PA_without_intermediate	test	ward_and_allport	-1	35.0	n/a	feedback	poldrack-single-stim	s648	False
459.627	3.639	3.639	463.266	1	PA_with_intermediate	test	ward_and_allport	71	36.0	3.639	to_hand	poldrack-single-stim	s648	False
463.268	0.1	0.634	463.902	0	PA_with_intermediate	test	ward_and_allport	82	36.0	0.634	to_board	poldrack-single-stim	s648	False
463.909	0.1	0.418	464.327	0	PA_with_intermediate	test	ward_and_allport	71	36.0	0.418	to_hand	poldrack-single-stim	s648	False
464.328	0.1	0.483	464.811	0	PA_with_intermediate	test	ward_and_allport	89	36.0	0.483	to_board	poldrack-single-stim	s648	False
464.821	0.1	0.412	465.233	0	PA_with_intermediate	test	ward_and_allport	82	36.0	0.412	to_hand	poldrack-single-stim	s648	False
465.234	0.1	0.372	465.606	0	PA_with_intermediate	test	ward_and_allport	71	36.0	0.372	to_board	poldrack-single-stim	s648	False
465.617	1.0	4.176	465.616	0	PA_with_intermediate	test	ward_and_allport	-1	36.0	n/a	feedback	poldrack-single-stim	s648	False
469.803	5.678	5.678	475.481	1	PA_with_intermediate	test	ward_and_allport	89	37.0	5.678	to_hand	poldrack-single-stim	s648	False
475.482	0.1	0.422	475.904	0	PA_with_intermediate	test	ward_and_allport	82	37.0	0.422	to_board	poldrack-single-stim	s648	False
475.912	0.1	0.395	476.307	0	PA_with_intermediate	test	ward_and_allport	89	37.0	0.395	to_hand	poldrack-single-stim	s648	False
476.309	0.1	0.362	476.671	0	PA_with_intermediate	test	ward_and_allport	71	37.0	0.362	to_board	poldrack-single-stim	s648	False
476.681	0.1	0.343	477.024	0	PA_with_intermediate	test	ward_and_allport	82	37.0	0.343	to_hand	poldrack-single-stim	s648	False
477.026	0.1	0.391	477.417	0	PA_with_intermediate	test	ward_and_allport	71	37.0	0.391	to_board	poldrack-single-stim	s648	False
477.429	1.0	3.36	477.428	0	PA_with_intermediate	test	ward_and_allport	-1	37.0	n/a	feedback	poldrack-single-stim	s648	False
480.798	4.088	4.088	484.886	1	PA_with_intermediate	test	ward_and_allport	71	38.0	4.088	to_hand	poldrack-single-stim	s648	False
484.887	0.1	0.365	485.252	0	PA_with_intermediate	test	ward_and_allport	82	38.0	0.365	to_board	poldrack-single-stim	s648	False
485.261	0.1	0.358	485.619	0	PA_with_intermediate	test	ward_and_allport	71	38.0	0.358	to_hand	poldrack-single-stim	s648	False
485.62	0.1	0.418	486.038	0	PA_with_intermediate	test	ward_and_allport	89	38.0	0.418	to_board	poldrack-single-stim	s648	False
486.048	0.1	0.519	486.567	0	PA_with_intermediate	test	ward_and_allport	82	38.0	0.519	to_hand	poldrack-single-stim	s648	False
486.568	0.1	0.377	486.945	0	PA_with_intermediate	test	ward_and_allport	71	38.0	0.377	to_board	poldrack-single-stim	s648	False
486.956	1.0	2.0	486.955	0	PA_with_intermediate	test	ward_and_allport	-1	38.0	n/a	feedback	poldrack-single-stim	s648	False
488.963	3.593	3.593	492.556	1	PA_without_intermediate	test	ward_and_allport	89	39.0	3.593	to_hand	poldrack-single-stim	s648	False
492.557	0.1	0.532	493.089	0	PA_without_intermediate	test	ward_and_allport	82	39.0	0.532	to_board	poldrack-single-stim	s648	False
493.096	0.1	0.554	493.65	0	PA_without_intermediate	test	ward_and_allport	89	39.0	0.554	to_hand	poldrack-single-stim	s648	False
493.651	0.1	0.393	494.044	0	PA_without_intermediate	test	ward_and_allport	71	39.0	0.393	to_board	poldrack-single-stim	s648	False
494.054	0.1	0.371	494.425	0	PA_without_intermediate	test	ward_and_allport	89	39.0	0.371	to_hand	poldrack-single-stim	s648	False
494.426	0.1	0.363	494.789	0	PA_without_intermediate	test	ward_and_allport	82	39.0	0.363	to_board	poldrack-single-stim	s648	False
494.801	1.0	2.408	494.8	0	PA_without_intermediate	test	ward_and_allport	-1	39.0	n/a	feedback	poldrack-single-stim	s648	False
497.218	3.674	3.674	500.892	1	PA_with_intermediate	test	ward_and_allport	71	40.0	3.674	to_hand	poldrack-single-stim	s648	False
500.894	0.1	0.601	501.495	0	PA_with_intermediate	test	ward_and_allport	89	40.0	0.601	to_board	poldrack-single-stim	s648	False
501.503	0.1	0.536	502.039	0	PA_with_intermediate	test	ward_and_allport	71	40.0	0.536	to_hand	poldrack-single-stim	s648	False
502.04	0.1	0.439	502.479	0	PA_with_intermediate	test	ward_and_allport	82	40.0	0.439	to_board	poldrack-single-stim	s648	False
502.49	0.1	0.423	502.913	0	PA_with_intermediate	test	ward_and_allport	89	40.0	0.423	to_hand	poldrack-single-stim	s648	False
502.914	0.1	0.401	503.315	0	PA_with_intermediate	test	ward_and_allport	82	40.0	0.401	to_board	poldrack-single-stim	s648	False
503.327	1.0	2.816	503.326	0	PA_with_intermediate	test	ward_and_allport	-1	40.0	n/a	feedback	poldrack-single-stim	s648	False
506.153	4.541	4.541	510.694	1	PA_without_intermediate	test	ward_and_allport	82	41.0	4.541	to_hand	poldrack-single-stim	s648	False
510.696	0.1	0.97	511.666	0	PA_without_intermediate	test	ward_and_allport	89	41.0	0.97	to_board	poldrack-single-stim	s648	False
511.675	0.1	0.556	512.231	0	PA_without_intermediate	test	ward_and_allport	82	41.0	0.556	to_hand	poldrack-single-stim	s648	False
512.232	0.1	0.466	512.698	0	PA_without_intermediate	test	ward_and_allport	71	41.0	0.466	to_board	poldrack-single-stim	s648	False
512.708	0.1	0.465	513.173	0	PA_without_intermediate	test	ward_and_allport	82	41.0	0.465	to_hand	poldrack-single-stim	s648	False
513.174	0.1	0.45	513.624	0	PA_without_intermediate	test	ward_and_allport	89	41.0	0.45	to_board	poldrack-single-stim	s648	False
513.635	1.0	3.088	513.634	0	PA_without_intermediate	test	ward_and_allport	-1	41.0	n/a	feedback	poldrack-single-stim	s648	False
516.732	2.941	2.941	519.673	1	PA_without_intermediate	test	ward_and_allport	82	42.0	2.941	to_hand	poldrack-single-stim	s648	False
519.674	0.1	0.504	520.178	0	PA_without_intermediate	test	ward_and_allport	71	42.0	0.504	to_board	poldrack-single-stim	s648	False
520.187	0.1	0.532	520.719	0	PA_without_intermediate	test	ward_and_allport	82	42.0	0.532	to_hand	poldrack-single-stim	s648	False
520.72	0.1	0.544	521.264	0	PA_without_intermediate	test	ward_and_allport	89	42.0	0.544	to_board	poldrack-single-stim	s648	False
521.273	0.1	0.629	521.902	0	PA_without_intermediate	test	ward_and_allport	82	42.0	0.629	to_hand	poldrack-single-stim	s648	False
521.903	0.1	0.427	522.33	0	PA_without_intermediate	test	ward_and_allport	71	42.0	0.427	to_board	poldrack-single-stim	s648	False
522.343	1.0	2.136	522.342	0	PA_without_intermediate	test	ward_and_allport	-1	42.0	n/a	feedback	poldrack-single-stim	s648	False
524.489	1.97	1.97	526.459	1	PA_without_intermediate	test	ward_and_allport	89	43.0	1.97	to_hand	poldrack-single-stim	s648	False
526.46	0.1	0.783	527.243	0	PA_without_intermediate	test	ward_and_allport	82	43.0	0.783	to_board	poldrack-single-stim	s648	False
527.251	0.1	0.581	527.832	0	PA_without_intermediate	test	ward_and_allport	89	43.0	0.581	to_hand	poldrack-single-stim	s648	False
527.832	0.1	0.448	528.28	0	PA_without_intermediate	test	ward_and_allport	82	43.0	0.448	to_board	poldrack-single-stim	s648	False
528.288	0.1	0.405	528.693	0	PA_without_intermediate	test	ward_and_allport	89	43.0	0.405	to_hand	poldrack-single-stim	s648	False
528.695	0.1	0.334	529.029	0	PA_without_intermediate	test	ward_and_allport	71	43.0	0.334	to_board	poldrack-single-stim	s648	False
529.039	1.0	7.168	529.038	0	PA_without_intermediate	test	ward_and_allport	-1	43.0	n/a	feedback	poldrack-single-stim	s648	False
536.216	3.708	3.708	539.924	1	PA_without_intermediate	test	ward_and_allport	71	44.0	3.708	to_hand	poldrack-single-stim	s648	False
539.925	0.1	0.374	540.299	0	PA_without_intermediate	test	ward_and_allport	89	44.0	0.374	to_board	poldrack-single-stim	s648	False
540.309	0.1	0.843	541.152	0	PA_without_intermediate	test	ward_and_allport	71	44.0	0.843	to_hand	poldrack-single-stim	s648	False
541.153	0.1	0.329	541.482	0	PA_without_intermediate	test	ward_and_allport	89	44.0	0.329	to_board	poldrack-single-stim	s648	False
541.492	0.1	0.267	541.759	0	PA_without_intermediate	test	ward_and_allport	71	44.0	0.267	to_hand	poldrack-single-stim	s648	False
541.761	0.1	0.353	542.114	0	PA_without_intermediate	test	ward_and_allport	82	44.0	0.353	to_board	poldrack-single-stim	s648	False
542.125	1.0	2.816	542.124	0	PA_without_intermediate	test	ward_and_allport	-1	44.0	n/a	feedback	poldrack-single-stim	s648	False
549.956	6.954	6.954	556.91	1	PA_with_intermediate	test	ward_and_allport	82	45.0	6.954	to_hand	poldrack-single-stim	s648	False
556.911	0.1	0.419	557.33	0	PA_with_intermediate	test	ward_and_allport	71	45.0	0.419	to_board	poldrack-single-stim	s648	False
557.342	0.1	0.469	557.811	0	PA_with_intermediate	test	ward_and_allport	82	45.0	0.469	to_hand	poldrack-single-stim	s648	False
557.812	0.1	0.433	558.245	0	PA_with_intermediate	test	ward_and_allport	89	45.0	0.433	to_board	poldrack-single-stim	s648	False
558.257	0.1	0.34	558.597	0	PA_with_intermediate	test	ward_and_allport	71	45.0	0.34	to_hand	poldrack-single-stim	s648	False
558.597	0.1	0.367	558.964	0	PA_with_intermediate	test	ward_and_allport	89	45.0	0.367	to_board	poldrack-single-stim	s648	False
558.976	1.0	2.952	558.975	0	PA_with_intermediate	test	ward_and_allport	-1	45.0	n/a	feedback	poldrack-single-stim	s648	False
