onset	duration	block_duration	movement_onset	planning	condition	exp_stage	experiment_exp_id	key_press	problem_id	response_time	trial_id	trial_type	worker_id	junk
3.015	4.871	4.871	7.886	1	UA_with_intermediate	practice	ward_and_allport	71	0.0	4.871	to_hand	poldrack-single-stim	s577	False
7.888	0.1	1.166	9.054	0	UA_with_intermediate	practice	ward_and_allport	82	0.0	1.166	to_board	poldrack-single-stim	s577	False
9.056	0.1	0.917	9.973	0	UA_with_intermediate	practice	ward_and_allport	71	0.0	0.917	to_hand	poldrack-single-stim	s577	False
9.975	0.1	0.497	10.472	0	UA_with_intermediate	practice	ward_and_allport	89	0.0	0.497	to_board	poldrack-single-stim	s577	False
10.473	0.1	2.127	12.6	0	UA_with_intermediate	practice	ward_and_allport	82	0.0	2.127	to_hand	poldrack-single-stim	s577	False
12.602	0.1	0.765	13.367	0	UA_with_intermediate	practice	ward_and_allport	89	0.0	0.765	to_board	poldrack-single-stim	s577	False
13.373	1.0	2.5	13.372	0	UA_with_intermediate	practice	ward_and_allport	-1	0.0	n/a	feedback	poldrack-single-stim	s577	False
15.875	3.913	3.913	19.788	1	UA_with_intermediate	practice	ward_and_allport	89	1.0	3.913	to_hand	poldrack-single-stim	s577	False
19.789	0.1	0.6	20.389	0	UA_with_intermediate	practice	ward_and_allport	82	1.0	0.6	to_board	poldrack-single-stim	s577	False
20.391	0.1	1.004	21.395	0	UA_with_intermediate	practice	ward_and_allport	71	1.0	1.004	to_hand	poldrack-single-stim	s577	False
21.396	0.1	0.436	21.832	0	UA_with_intermediate	practice	ward_and_allport	89	1.0	0.436	to_board	poldrack-single-stim	s577	False
21.832	0.1	1.634	23.466	0	UA_with_intermediate	practice	ward_and_allport	82	1.0	1.634	to_hand	poldrack-single-stim	s577	False
23.468	0.1	0.441	23.909	0	UA_with_intermediate	practice	ward_and_allport	89	1.0	0.441	to_board	poldrack-single-stim	s577	False
23.914	1.0	2.1	23.913	0	UA_with_intermediate	practice	ward_and_allport	-1	1.0	n/a	feedback	poldrack-single-stim	s577	False
26.016	2.531	2.531	28.547	1	UA_without_intermediate	practice	ward_and_allport	82	2.0	2.531	to_hand	poldrack-single-stim	s577	False
28.547	0.1	0.535	29.082	0	UA_without_intermediate	practice	ward_and_allport	89	2.0	0.535	to_board	poldrack-single-stim	s577	False
29.085	0.1	1.337	30.422	0	UA_without_intermediate	practice	ward_and_allport	71	2.0	1.337	to_hand	poldrack-single-stim	s577	False
30.424	0.1	0.322	30.746	0	UA_without_intermediate	practice	ward_and_allport	89	2.0	0.322	to_board	poldrack-single-stim	s577	False
30.748	0.1	1.414	32.162	0	UA_without_intermediate	practice	ward_and_allport	71	2.0	1.414	to_hand	poldrack-single-stim	s577	False
32.163	0.1	0.36	32.523	0	UA_without_intermediate	practice	ward_and_allport	89	2.0	0.36	to_board	poldrack-single-stim	s577	False
32.531	1.0	2.2	32.53	0	UA_without_intermediate	practice	ward_and_allport	-1	2.0	n/a	feedback	poldrack-single-stim	s577	False
34.733	2.468	2.468	37.201	1	UA_without_intermediate	practice	ward_and_allport	71	3.0	2.468	to_hand	poldrack-single-stim	s577	False
37.203	0.1	0.326	37.529	0	UA_without_intermediate	practice	ward_and_allport	89	3.0	0.326	to_board	poldrack-single-stim	s577	False
37.532	0.1	1.422	38.954	0	UA_without_intermediate	practice	ward_and_allport	82	3.0	1.422	to_hand	poldrack-single-stim	s577	False
38.955	0.1	0.356	39.311	0	UA_without_intermediate	practice	ward_and_allport	71	3.0	0.356	to_board	poldrack-single-stim	s577	False
39.313	0.1	0.69	40.003	0	UA_without_intermediate	practice	ward_and_allport	71	3.0	0.69	to_hand	poldrack-single-stim	s577	False
40.004	0.1	0.32	40.324	0	UA_without_intermediate	practice	ward_and_allport	89	3.0	0.32	to_board	poldrack-single-stim	s577	False
40.326	0.1	0.999	41.325	0	UA_without_intermediate	practice	ward_and_allport	71	3.0	0.999	to_hand	poldrack-single-stim	s577	False
41.326	0.1	0.235	41.561	0	UA_without_intermediate	practice	ward_and_allport	89	3.0	0.235	to_board	poldrack-single-stim	s577	False
41.564	1.0	2.0	41.563	0	UA_without_intermediate	practice	ward_and_allport	-1	3.0	n/a	feedback	poldrack-single-stim	s577	False
45.569	5.705	5.705	51.274	1	PA_without_intermediate	test	ward_and_allport	89	0.0	5.705	to_hand	poldrack-single-stim	s577	False
51.275	0.1	1.385	52.66	0	PA_without_intermediate	test	ward_and_allport	82	0.0	1.385	to_board	poldrack-single-stim	s577	False
52.662	0.1	2.073	54.735	0	PA_without_intermediate	test	ward_and_allport	89	0.0	2.073	to_hand	poldrack-single-stim	s577	False
54.736	0.1	1.402	56.138	0	PA_without_intermediate	test	ward_and_allport	82	0.0	1.402	to_board	poldrack-single-stim	s577	False
56.141	0.1	1.429	57.57	0	PA_without_intermediate	test	ward_and_allport	89	0.0	1.429	to_hand	poldrack-single-stim	s577	False
57.571	0.1	0.898	58.469	0	PA_without_intermediate	test	ward_and_allport	71	0.0	0.898	to_board	poldrack-single-stim	s577	False
58.472	1.0	3.088	58.471	0	PA_without_intermediate	test	ward_and_allport	-1	0.0	n/a	feedback	poldrack-single-stim	s577	False
61.562	3.711	3.711	65.273	1	PA_with_intermediate	test	ward_and_allport	82	1.0	3.711	to_hand	poldrack-single-stim	s577	False
65.274	0.1	0.699	65.973	0	PA_with_intermediate	test	ward_and_allport	89	1.0	0.699	to_board	poldrack-single-stim	s577	False
65.975	0.1	2.958	68.933	0	PA_with_intermediate	test	ward_and_allport	89	1.0	2.958	to_hand	poldrack-single-stim	s577	False
68.933	0.1	0.423	69.356	0	PA_with_intermediate	test	ward_and_allport	71	1.0	0.423	to_board	poldrack-single-stim	s577	False
69.358	0.1	1.466	70.824	0	PA_with_intermediate	test	ward_and_allport	82	1.0	1.466	to_hand	poldrack-single-stim	s577	False
70.826	0.1	1.446	72.272	0	PA_with_intermediate	test	ward_and_allport	89	1.0	1.446	to_board	poldrack-single-stim	s577	False
72.274	0.1	0.92	73.194	0	PA_with_intermediate	test	ward_and_allport	71	1.0	0.92	to_hand	poldrack-single-stim	s577	False
73.194	0.1	0.596	73.79	0	PA_with_intermediate	test	ward_and_allport	89	1.0	0.596	to_board	poldrack-single-stim	s577	False
73.794	1.0	2.0	73.793	0	PA_with_intermediate	test	ward_and_allport	-1	1.0	n/a	feedback	poldrack-single-stim	s577	False
75.796	3.477	3.477	79.273	1	PA_without_intermediate	test	ward_and_allport	89	2.0	3.477	to_hand	poldrack-single-stim	s577	False
79.274	0.1	0.443	79.717	0	PA_without_intermediate	test	ward_and_allport	71	2.0	0.443	to_board	poldrack-single-stim	s577	False
79.719	0.1	2.658	82.377	0	PA_without_intermediate	test	ward_and_allport	89	2.0	2.658	to_hand	poldrack-single-stim	s577	False
82.378	0.1	0.514	82.892	0	PA_without_intermediate	test	ward_and_allport	71	2.0	0.514	to_board	poldrack-single-stim	s577	False
82.894	0.1	0.655	83.549	0	PA_without_intermediate	test	ward_and_allport	89	2.0	0.655	to_hand	poldrack-single-stim	s577	False
83.55	0.1	0.594	84.144	0	PA_without_intermediate	test	ward_and_allport	82	2.0	0.594	to_board	poldrack-single-stim	s577	False
84.149	1.0	2.0	84.148	0	PA_without_intermediate	test	ward_and_allport	-1	2.0	n/a	feedback	poldrack-single-stim	s577	False
86.151	3.156	3.156	89.307	1	PA_without_intermediate	test	ward_and_allport	71	3.0	3.156	to_hand	poldrack-single-stim	s577	False
89.309	0.1	0.558	89.867	0	PA_without_intermediate	test	ward_and_allport	89	3.0	0.558	to_board	poldrack-single-stim	s577	False
89.87	0.1	0.876	90.746	0	PA_without_intermediate	test	ward_and_allport	71	3.0	0.876	to_hand	poldrack-single-stim	s577	False
90.746	0.1	0.364	91.11	0	PA_without_intermediate	test	ward_and_allport	89	3.0	0.364	to_board	poldrack-single-stim	s577	False
91.112	0.1	0.944	92.056	0	PA_without_intermediate	test	ward_and_allport	71	3.0	0.944	to_hand	poldrack-single-stim	s577	False
92.057	0.1	0.539	92.596	0	PA_without_intermediate	test	ward_and_allport	82	3.0	0.539	to_board	poldrack-single-stim	s577	False
92.6	1.0	2.0	92.599	0	PA_without_intermediate	test	ward_and_allport	-1	3.0	n/a	feedback	poldrack-single-stim	s577	False
94.604	2.273	2.273	96.877	1	PA_with_intermediate	test	ward_and_allport	89	4.0	2.273	to_hand	poldrack-single-stim	s577	False
96.878	0.1	0.586	97.464	0	PA_with_intermediate	test	ward_and_allport	71	4.0	0.586	to_board	poldrack-single-stim	s577	False
97.467	0.1	0.934	98.401	0	PA_with_intermediate	test	ward_and_allport	89	4.0	0.934	to_hand	poldrack-single-stim	s577	False
98.402	0.1	0.568	98.97	0	PA_with_intermediate	test	ward_and_allport	82	4.0	0.568	to_board	poldrack-single-stim	s577	False
98.973	0.1	0.595	99.568	0	PA_with_intermediate	test	ward_and_allport	71	4.0	0.595	to_hand	poldrack-single-stim	s577	False
99.569	0.1	0.432	100.001	0	PA_with_intermediate	test	ward_and_allport	82	4.0	0.432	to_board	poldrack-single-stim	s577	False
100.009	1.0	2.544	100.008	0	PA_with_intermediate	test	ward_and_allport	-1	4.0	n/a	feedback	poldrack-single-stim	s577	False
102.557	2.19	2.19	104.747	1	PA_without_intermediate	test	ward_and_allport	71	5.0	2.19	to_hand	poldrack-single-stim	s577	False
104.747	0.1	0.425	105.172	0	PA_without_intermediate	test	ward_and_allport	82	5.0	0.425	to_board	poldrack-single-stim	s577	False
105.175	0.1	0.753	105.928	0	PA_without_intermediate	test	ward_and_allport	71	5.0	0.753	to_hand	poldrack-single-stim	s577	False
105.929	0.1	1.259	107.188	0	PA_without_intermediate	test	ward_and_allport	82	5.0	1.259	to_board	poldrack-single-stim	s577	False
107.191	0.1	0.408	107.599	0	PA_without_intermediate	test	ward_and_allport	71	5.0	0.408	to_hand	poldrack-single-stim	s577	False
107.601	0.1	0.389	107.99	0	PA_without_intermediate	test	ward_and_allport	89	5.0	0.389	to_board	poldrack-single-stim	s577	False
107.998	1.0	2.272	107.997	0	PA_without_intermediate	test	ward_and_allport	-1	5.0	n/a	feedback	poldrack-single-stim	s577	False
110.273	3.076	3.076	113.349	1	PA_with_intermediate	test	ward_and_allport	89	6.0	3.076	to_hand	poldrack-single-stim	s577	False
113.351	0.1	0.883	114.234	0	PA_with_intermediate	test	ward_and_allport	82	6.0	0.883	to_board	poldrack-single-stim	s577	False
114.236	0.1	0.958	115.194	0	PA_with_intermediate	test	ward_and_allport	89	6.0	0.958	to_hand	poldrack-single-stim	s577	False
115.195	0.1	0.74	115.935	0	PA_with_intermediate	test	ward_and_allport	71	6.0	0.74	to_board	poldrack-single-stim	s577	False
115.939	0.1	1.453	117.392	0	PA_with_intermediate	test	ward_and_allport	82	6.0	1.453	to_hand	poldrack-single-stim	s577	False
117.393	0.1	0.396	117.789	0	PA_with_intermediate	test	ward_and_allport	71	6.0	0.396	to_board	poldrack-single-stim	s577	False
117.793	1.0	4.04	117.792	0	PA_with_intermediate	test	ward_and_allport	-1	6.0	n/a	feedback	poldrack-single-stim	s577	False
121.837	2.513	2.513	124.35	1	PA_with_intermediate	test	ward_and_allport	89	7.0	2.513	to_hand	poldrack-single-stim	s577	False
124.35	0.1	0.634	124.984	0	PA_with_intermediate	test	ward_and_allport	82	7.0	0.634	to_board	poldrack-single-stim	s577	False
124.988	0.1	1.16	126.148	0	PA_with_intermediate	test	ward_and_allport	89	7.0	1.16	to_hand	poldrack-single-stim	s577	False
126.148	0.1	0.438	126.586	0	PA_with_intermediate	test	ward_and_allport	71	7.0	0.438	to_board	poldrack-single-stim	s577	False
126.59	0.1	2.309	128.899	0	PA_with_intermediate	test	ward_and_allport	82	7.0	2.309	to_hand	poldrack-single-stim	s577	False
128.9	0.1	0.68	129.58	0	PA_with_intermediate	test	ward_and_allport	89	7.0	0.68	to_board	poldrack-single-stim	s577	False
129.588	1.0	2.272	129.587	0	PA_with_intermediate	test	ward_and_allport	-1	7.0	n/a	feedback	poldrack-single-stim	s577	False
131.863	3.79	3.79	135.653	1	PA_with_intermediate	test	ward_and_allport	71	8.0	3.79	to_hand	poldrack-single-stim	s577	False
135.655	0.1	0.634	136.289	0	PA_with_intermediate	test	ward_and_allport	89	8.0	0.634	to_board	poldrack-single-stim	s577	False
136.293	0.1	0.692	136.985	0	PA_with_intermediate	test	ward_and_allport	71	8.0	0.692	to_hand	poldrack-single-stim	s577	False
136.986	0.1	0.485	137.471	0	PA_with_intermediate	test	ward_and_allport	82	8.0	0.485	to_board	poldrack-single-stim	s577	False
137.475	0.1	0.758	138.233	0	PA_with_intermediate	test	ward_and_allport	89	8.0	0.758	to_hand	poldrack-single-stim	s577	False
138.235	0.1	0.43	138.665	0	PA_with_intermediate	test	ward_and_allport	71	8.0	0.43	to_board	poldrack-single-stim	s577	False
138.668	1.0	2.136	138.667	0	PA_with_intermediate	test	ward_and_allport	-1	8.0	n/a	feedback	poldrack-single-stim	s577	False
140.807	3.337	3.337	144.144	1	PA_with_intermediate	test	ward_and_allport	89	9.0	3.337	to_hand	poldrack-single-stim	s577	False
144.145	0.1	0.512	144.657	0	PA_with_intermediate	test	ward_and_allport	71	9.0	0.512	to_board	poldrack-single-stim	s577	False
144.661	0.1	0.596	145.257	0	PA_with_intermediate	test	ward_and_allport	71	9.0	0.596	to_hand	poldrack-single-stim	s577	False
145.258	0.1	0.759	146.017	0	PA_with_intermediate	test	ward_and_allport	71	9.0	0.759	to_board	poldrack-single-stim	s577	False
146.021	0.1	0.409	146.43	0	PA_with_intermediate	test	ward_and_allport	89	9.0	0.409	to_hand	poldrack-single-stim	s577	False
146.431	0.1	0.368	146.799	0	PA_with_intermediate	test	ward_and_allport	71	9.0	0.368	to_board	poldrack-single-stim	s577	False
146.804	0.1	1.148	147.952	0	PA_with_intermediate	test	ward_and_allport	71	9.0	1.148	to_hand	poldrack-single-stim	s577	False
147.952	0.1	2.817	150.769	0	PA_with_intermediate	test	ward_and_allport	82	9.0	2.817	to_board	poldrack-single-stim	s577	False
150.772	0.1	0.813	151.585	0	PA_with_intermediate	test	ward_and_allport	71	9.0	0.813	to_hand	poldrack-single-stim	s577	False
151.587	0.1	0.314	151.901	0	PA_with_intermediate	test	ward_and_allport	82	9.0	0.314	to_board	poldrack-single-stim	s577	False
151.909	1.0	2.0	151.908	0	PA_with_intermediate	test	ward_and_allport	-1	9.0	n/a	feedback	poldrack-single-stim	s577	False
153.914	2.722	2.722	156.636	1	PA_with_intermediate	test	ward_and_allport	71	10.0	2.722	to_hand	poldrack-single-stim	s577	False
156.638	0.1	2.319	158.957	0	PA_with_intermediate	test	ward_and_allport	82	10.0	2.319	to_board	poldrack-single-stim	s577	False
158.961	0.1	2.073	161.034	0	PA_with_intermediate	test	ward_and_allport	71	10.0	2.073	to_hand	poldrack-single-stim	s577	False
161.035	0.1	1.006	162.041	0	PA_with_intermediate	test	ward_and_allport	89	10.0	1.006	to_board	poldrack-single-stim	s577	False
162.045	0.1	2.313	164.358	0	PA_with_intermediate	test	ward_and_allport	82	10.0	2.313	to_hand	poldrack-single-stim	s577	False
164.36	0.1	0.543	164.903	0	PA_with_intermediate	test	ward_and_allport	89	10.0	0.543	to_board	poldrack-single-stim	s577	False
164.912	1.0	2.0	164.911	0	PA_with_intermediate	test	ward_and_allport	-1	10.0	n/a	feedback	poldrack-single-stim	s577	False
166.916	3.279	3.279	170.195	1	PA_without_intermediate	test	ward_and_allport	82	11.0	3.279	to_hand	poldrack-single-stim	s577	False
170.196	0.1	1.091	171.287	0	PA_without_intermediate	test	ward_and_allport	89	11.0	1.091	to_board	poldrack-single-stim	s577	False
171.29	0.1	1.265	172.555	0	PA_without_intermediate	test	ward_and_allport	82	11.0	1.265	to_hand	poldrack-single-stim	s577	False
172.556	0.1	0.633	173.189	0	PA_without_intermediate	test	ward_and_allport	89	11.0	0.633	to_board	poldrack-single-stim	s577	False
173.194	0.1	1.701	174.895	0	PA_without_intermediate	test	ward_and_allport	82	11.0	1.701	to_hand	poldrack-single-stim	s577	False
174.897	0.1	0.58	175.477	0	PA_without_intermediate	test	ward_and_allport	71	11.0	0.58	to_board	poldrack-single-stim	s577	False
175.485	1.0	2.408	175.484	0	PA_without_intermediate	test	ward_and_allport	-1	11.0	n/a	feedback	poldrack-single-stim	s577	False
177.896	5.446	5.446	183.342	1	PA_with_intermediate	test	ward_and_allport	82	12.0	5.446	to_hand	poldrack-single-stim	s577	False
183.343	0.1	0.479	183.822	0	PA_with_intermediate	test	ward_and_allport	71	12.0	0.479	to_board	poldrack-single-stim	s577	False
183.826	0.1	1.18	185.006	0	PA_with_intermediate	test	ward_and_allport	82	12.0	1.18	to_hand	poldrack-single-stim	s577	False
185.007	0.1	0.854	185.861	0	PA_with_intermediate	test	ward_and_allport	89	12.0	0.854	to_board	poldrack-single-stim	s577	False
185.866	0.1	0.62	186.486	0	PA_with_intermediate	test	ward_and_allport	71	12.0	0.62	to_hand	poldrack-single-stim	s577	False
186.487	0.1	0.547	187.034	0	PA_with_intermediate	test	ward_and_allport	82	12.0	0.547	to_board	poldrack-single-stim	s577	False
187.043	1.0	3.768	187.042	0	PA_with_intermediate	test	ward_and_allport	-1	12.0	n/a	feedback	poldrack-single-stim	s577	False
190.816	3.759	3.759	194.575	1	PA_with_intermediate	test	ward_and_allport	89	13.0	3.759	to_hand	poldrack-single-stim	s577	False
194.576	0.1	2.039	196.615	0	PA_with_intermediate	test	ward_and_allport	71	13.0	2.039	to_board	poldrack-single-stim	s577	False
196.618	0.1	0.466	197.084	0	PA_with_intermediate	test	ward_and_allport	89	13.0	0.466	to_hand	poldrack-single-stim	s577	False
197.086	0.1	0.695	197.781	0	PA_with_intermediate	test	ward_and_allport	82	13.0	0.695	to_board	poldrack-single-stim	s577	False
197.786	0.1	0.407	198.193	0	PA_with_intermediate	test	ward_and_allport	71	13.0	0.407	to_hand	poldrack-single-stim	s577	False
198.193	0.1	0.405	198.598	0	PA_with_intermediate	test	ward_and_allport	89	13.0	0.405	to_board	poldrack-single-stim	s577	False
198.603	1.0	2.68	198.602	0	PA_with_intermediate	test	ward_and_allport	-1	13.0	n/a	feedback	poldrack-single-stim	s577	False
201.287	2.426	2.426	203.713	1	PA_without_intermediate	test	ward_and_allport	89	14.0	2.426	to_hand	poldrack-single-stim	s577	False
203.715	0.1	0.92	204.635	0	PA_without_intermediate	test	ward_and_allport	82	14.0	0.92	to_board	poldrack-single-stim	s577	False
204.639	0.1	1.044	205.683	0	PA_without_intermediate	test	ward_and_allport	89	14.0	1.044	to_hand	poldrack-single-stim	s577	False
205.685	0.1	0.625	206.31	0	PA_without_intermediate	test	ward_and_allport	71	14.0	0.625	to_board	poldrack-single-stim	s577	False
206.314	0.1	0.37	206.684	0	PA_without_intermediate	test	ward_and_allport	89	14.0	0.37	to_hand	poldrack-single-stim	s577	False
206.686	0.1	0.715	207.401	0	PA_without_intermediate	test	ward_and_allport	82	14.0	0.715	to_board	poldrack-single-stim	s577	False
207.407	1.0	3.224	207.406	0	PA_without_intermediate	test	ward_and_allport	-1	14.0	n/a	feedback	poldrack-single-stim	s577	False
215.637	3.816	3.816	219.453	1	PA_without_intermediate	test	ward_and_allport	82	15.0	3.816	to_hand	poldrack-single-stim	s577	False
219.454	0.1	0.847	220.301	0	PA_without_intermediate	test	ward_and_allport	71	15.0	0.847	to_board	poldrack-single-stim	s577	False
220.305	0.1	0.884	221.189	0	PA_without_intermediate	test	ward_and_allport	82	15.0	0.884	to_hand	poldrack-single-stim	s577	False
221.191	0.1	1.345	222.536	0	PA_without_intermediate	test	ward_and_allport	71	15.0	1.345	to_board	poldrack-single-stim	s577	False
222.54	0.1	0.992	223.532	0	PA_without_intermediate	test	ward_and_allport	82	15.0	0.992	to_hand	poldrack-single-stim	s577	False
223.533	0.1	0.645	224.178	0	PA_without_intermediate	test	ward_and_allport	89	15.0	0.645	to_board	poldrack-single-stim	s577	False
224.183	1.0	3.36	224.182	0	PA_without_intermediate	test	ward_and_allport	-1	15.0	n/a	feedback	poldrack-single-stim	s577	False
227.548	2.783	2.783	230.331	1	PA_without_intermediate	test	ward_and_allport	82	16.0	2.783	to_hand	poldrack-single-stim	s577	False
230.333	0.1	0.916	231.249	0	PA_without_intermediate	test	ward_and_allport	89	16.0	0.916	to_board	poldrack-single-stim	s577	False
231.254	0.1	0.847	232.101	0	PA_without_intermediate	test	ward_and_allport	82	16.0	0.847	to_hand	poldrack-single-stim	s577	False
232.103	0.1	0.583	232.686	0	PA_without_intermediate	test	ward_and_allport	89	16.0	0.583	to_board	poldrack-single-stim	s577	False
232.691	0.1	1.131	233.822	0	PA_without_intermediate	test	ward_and_allport	82	16.0	1.131	to_hand	poldrack-single-stim	s577	False
233.822	0.1	0.424	234.246	0	PA_without_intermediate	test	ward_and_allport	71	16.0	0.424	to_board	poldrack-single-stim	s577	False
234.253	1.0	2.0	234.252	0	PA_without_intermediate	test	ward_and_allport	-1	16.0	n/a	feedback	poldrack-single-stim	s577	False
236.258	2.303	2.303	238.561	1	PA_without_intermediate	test	ward_and_allport	71	17.0	2.303	to_hand	poldrack-single-stim	s577	False
238.563	0.1	0.763	239.326	0	PA_without_intermediate	test	ward_and_allport	89	17.0	0.763	to_board	poldrack-single-stim	s577	False
239.33	0.1	1.284	240.614	0	PA_without_intermediate	test	ward_and_allport	71	17.0	1.284	to_hand	poldrack-single-stim	s577	False
240.616	0.1	0.572	241.188	0	PA_without_intermediate	test	ward_and_allport	89	17.0	0.572	to_board	poldrack-single-stim	s577	False
241.193	0.1	0.789	241.982	0	PA_without_intermediate	test	ward_and_allport	71	17.0	0.789	to_hand	poldrack-single-stim	s577	False
241.982	0.1	0.32	242.302	0	PA_without_intermediate	test	ward_and_allport	82	17.0	0.32	to_board	poldrack-single-stim	s577	False
242.309	1.0	2.408	242.308	0	PA_without_intermediate	test	ward_and_allport	-1	17.0	n/a	feedback	poldrack-single-stim	s577	False
244.721	3.994	3.994	248.715	1	PA_with_intermediate	test	ward_and_allport	82	18.0	3.994	to_hand	poldrack-single-stim	s577	False
248.716	0.1	0.386	249.102	0	PA_with_intermediate	test	ward_and_allport	71	18.0	0.386	to_board	poldrack-single-stim	s577	False
249.106	0.1	0.435	249.541	0	PA_with_intermediate	test	ward_and_allport	82	18.0	0.435	to_hand	poldrack-single-stim	s577	False
249.543	0.1	0.645	250.188	0	PA_with_intermediate	test	ward_and_allport	89	18.0	0.645	to_board	poldrack-single-stim	s577	False
250.193	0.1	0.734	250.927	0	PA_with_intermediate	test	ward_and_allport	71	18.0	0.734	to_hand	poldrack-single-stim	s577	False
250.927	0.1	0.351	251.278	0	PA_with_intermediate	test	ward_and_allport	82	18.0	0.351	to_board	poldrack-single-stim	s577	False
251.285	1.0	2.136	251.284	0	PA_with_intermediate	test	ward_and_allport	-1	18.0	n/a	feedback	poldrack-single-stim	s577	False
253.427	1.478	1.478	254.905	1	PA_without_intermediate	test	ward_and_allport	71	19.0	1.478	to_hand	poldrack-single-stim	s577	False
254.906	0.1	0.985	255.891	0	PA_without_intermediate	test	ward_and_allport	89	19.0	0.985	to_board	poldrack-single-stim	s577	False
255.896	0.1	0.526	256.422	0	PA_without_intermediate	test	ward_and_allport	71	19.0	0.526	to_hand	poldrack-single-stim	s577	False
256.423	0.1	0.419	256.842	0	PA_without_intermediate	test	ward_and_allport	82	19.0	0.419	to_board	poldrack-single-stim	s577	False
256.847	0.1	0.356	257.203	0	PA_without_intermediate	test	ward_and_allport	71	19.0	0.356	to_hand	poldrack-single-stim	s577	False
257.203	0.1	0.358	257.561	0	PA_without_intermediate	test	ward_and_allport	89	19.0	0.358	to_board	poldrack-single-stim	s577	False
257.568	1.0	5.128	257.567	0	PA_without_intermediate	test	ward_and_allport	-1	19.0	n/a	feedback	poldrack-single-stim	s577	False
262.701	3.191	3.191	265.892	1	PA_without_intermediate	test	ward_and_allport	89	20.0	3.191	to_hand	poldrack-single-stim	s577	False
265.894	0.1	0.608	266.502	0	PA_without_intermediate	test	ward_and_allport	71	20.0	0.608	to_board	poldrack-single-stim	s577	False
266.507	0.1	1.479	267.986	0	PA_without_intermediate	test	ward_and_allport	89	20.0	1.479	to_hand	poldrack-single-stim	s577	False
267.987	0.1	0.538	268.525	0	PA_without_intermediate	test	ward_and_allport	82	20.0	0.538	to_board	poldrack-single-stim	s577	False
268.53	0.1	0.515	269.045	0	PA_without_intermediate	test	ward_and_allport	71	20.0	0.515	to_hand	poldrack-single-stim	s577	False
269.046	0.1	1.121	270.167	0	PA_without_intermediate	test	ward_and_allport	71	20.0	1.121	to_board	poldrack-single-stim	s577	False
270.172	0.1	0.348	270.52	0	PA_without_intermediate	test	ward_and_allport	89	20.0	0.348	to_hand	poldrack-single-stim	s577	False
270.522	0.1	0.335	270.857	0	PA_without_intermediate	test	ward_and_allport	71	20.0	0.335	to_board	poldrack-single-stim	s577	False
270.865	1.0	2.136	270.864	0	PA_without_intermediate	test	ward_and_allport	-1	20.0	n/a	feedback	poldrack-single-stim	s577	False
273.005	3.117	3.117	276.122	1	PA_without_intermediate	test	ward_and_allport	82	21.0	3.117	to_hand	poldrack-single-stim	s577	False
276.123	0.1	0.516	276.639	0	PA_without_intermediate	test	ward_and_allport	71	21.0	0.516	to_board	poldrack-single-stim	s577	False
276.645	0.1	2.092	278.737	0	PA_without_intermediate	test	ward_and_allport	82	21.0	2.092	to_hand	poldrack-single-stim	s577	False
278.738	0.1	0.93	279.668	0	PA_without_intermediate	test	ward_and_allport	89	21.0	0.93	to_board	poldrack-single-stim	s577	False
279.674	0.1	0.878	280.552	0	PA_without_intermediate	test	ward_and_allport	82	21.0	0.878	to_hand	poldrack-single-stim	s577	False
280.553	0.1	0.823	281.376	0	PA_without_intermediate	test	ward_and_allport	71	21.0	0.823	to_board	poldrack-single-stim	s577	False
281.385	1.0	5.264	281.384	0	PA_without_intermediate	test	ward_and_allport	-1	21.0	n/a	feedback	poldrack-single-stim	s577	False
286.654	2.924	2.924	289.578	1	PA_with_intermediate	test	ward_and_allport	89	22.0	2.924	to_hand	poldrack-single-stim	s577	False
289.58	0.1	0.467	290.047	0	PA_with_intermediate	test	ward_and_allport	82	22.0	0.467	to_board	poldrack-single-stim	s577	False
290.053	0.1	1.754	291.807	0	PA_with_intermediate	test	ward_and_allport	89	22.0	1.754	to_hand	poldrack-single-stim	s577	False
291.809	0.1	0.619	292.428	0	PA_with_intermediate	test	ward_and_allport	71	22.0	0.619	to_board	poldrack-single-stim	s577	False
292.434	0.1	0.649	293.083	0	PA_with_intermediate	test	ward_and_allport	82	22.0	0.649	to_hand	poldrack-single-stim	s577	False
293.084	0.1	0.429	293.513	0	PA_with_intermediate	test	ward_and_allport	71	22.0	0.429	to_board	poldrack-single-stim	s577	False
293.521	1.0	4.04	293.52	0	PA_with_intermediate	test	ward_and_allport	-1	22.0	n/a	feedback	poldrack-single-stim	s577	False
297.568	4.098	4.098	301.666	1	PA_with_intermediate	test	ward_and_allport	82	23.0	4.098	to_hand	poldrack-single-stim	s577	False
301.667	0.1	0.724	302.391	0	PA_with_intermediate	test	ward_and_allport	89	23.0	0.724	to_board	poldrack-single-stim	s577	False
302.398	0.1	1.074	303.472	0	PA_with_intermediate	test	ward_and_allport	82	23.0	1.074	to_hand	poldrack-single-stim	s577	False
303.474	0.1	0.486	303.96	0	PA_with_intermediate	test	ward_and_allport	71	23.0	0.486	to_board	poldrack-single-stim	s577	False
303.967	0.1	0.458	304.425	0	PA_with_intermediate	test	ward_and_allport	89	23.0	0.458	to_hand	poldrack-single-stim	s577	False
304.426	0.1	0.408	304.834	0	PA_with_intermediate	test	ward_and_allport	71	23.0	0.408	to_board	poldrack-single-stim	s577	False
304.843	1.0	2.136	304.842	0	PA_with_intermediate	test	ward_and_allport	-1	23.0	n/a	feedback	poldrack-single-stim	s577	False
306.985	3.94	3.94	310.925	1	PA_with_intermediate	test	ward_and_allport	71	24.0	3.94	to_hand	poldrack-single-stim	s577	False
310.926	0.1	1.09	312.016	0	PA_with_intermediate	test	ward_and_allport	82	24.0	1.09	to_board	poldrack-single-stim	s577	False
312.022	0.1	0.726	312.748	0	PA_with_intermediate	test	ward_and_allport	71	24.0	0.726	to_hand	poldrack-single-stim	s577	False
312.749	0.1	0.384	313.133	0	PA_with_intermediate	test	ward_and_allport	89	24.0	0.384	to_board	poldrack-single-stim	s577	False
313.139	0.1	0.607	313.746	0	PA_with_intermediate	test	ward_and_allport	82	24.0	0.607	to_hand	poldrack-single-stim	s577	False
313.747	0.1	0.397	314.144	0	PA_with_intermediate	test	ward_and_allport	71	24.0	0.397	to_board	poldrack-single-stim	s577	False
314.151	1.0	2.408	314.15	0	PA_with_intermediate	test	ward_and_allport	-1	24.0	n/a	feedback	poldrack-single-stim	s577	False
316.566	1.976	1.976	318.542	1	PA_without_intermediate	test	ward_and_allport	71	25.0	1.976	to_hand	poldrack-single-stim	s577	False
318.542	0.1	0.564	319.106	0	PA_without_intermediate	test	ward_and_allport	82	25.0	0.564	to_board	poldrack-single-stim	s577	False
319.112	0.1	0.654	319.766	0	PA_without_intermediate	test	ward_and_allport	71	25.0	0.654	to_hand	poldrack-single-stim	s577	False
319.767	0.1	0.329	320.096	0	PA_without_intermediate	test	ward_and_allport	82	25.0	0.329	to_board	poldrack-single-stim	s577	False
320.102	0.1	0.645	320.747	0	PA_without_intermediate	test	ward_and_allport	71	25.0	0.645	to_hand	poldrack-single-stim	s577	False
320.748	0.1	0.303	321.051	0	PA_without_intermediate	test	ward_and_allport	89	25.0	0.303	to_board	poldrack-single-stim	s577	False
321.058	1.0	2.68	321.057	0	PA_without_intermediate	test	ward_and_allport	-1	25.0	n/a	feedback	poldrack-single-stim	s577	False
323.745	2.795	2.795	326.54	1	PA_with_intermediate	test	ward_and_allport	71	26.0	2.795	to_hand	poldrack-single-stim	s577	False
326.541	0.1	0.869	327.41	0	PA_with_intermediate	test	ward_and_allport	82	26.0	0.869	to_board	poldrack-single-stim	s577	False
327.417	0.1	0.395	327.812	0	PA_with_intermediate	test	ward_and_allport	71	26.0	0.395	to_hand	poldrack-single-stim	s577	False
327.813	0.1	0.338	328.151	0	PA_with_intermediate	test	ward_and_allport	89	26.0	0.338	to_board	poldrack-single-stim	s577	False
328.157	0.1	0.478	328.635	0	PA_with_intermediate	test	ward_and_allport	82	26.0	0.478	to_hand	poldrack-single-stim	s577	False
328.636	0.1	0.413	329.049	0	PA_with_intermediate	test	ward_and_allport	71	26.0	0.413	to_board	poldrack-single-stim	s577	False
329.058	1.0	4.72	329.057	0	PA_with_intermediate	test	ward_and_allport	-1	26.0	n/a	feedback	poldrack-single-stim	s577	False
333.786	2.751	2.751	336.537	1	PA_without_intermediate	test	ward_and_allport	89	27.0	2.751	to_hand	poldrack-single-stim	s577	False
336.538	0.1	0.492	337.03	0	PA_without_intermediate	test	ward_and_allport	82	27.0	0.492	to_board	poldrack-single-stim	s577	False
337.036	0.1	1.911	338.947	0	PA_without_intermediate	test	ward_and_allport	89	27.0	1.911	to_hand	poldrack-single-stim	s577	False
338.949	0.1	0.316	339.265	0	PA_without_intermediate	test	ward_and_allport	82	27.0	0.316	to_board	poldrack-single-stim	s577	False
339.271	0.1	1.36	340.631	0	PA_without_intermediate	test	ward_and_allport	89	27.0	1.36	to_hand	poldrack-single-stim	s577	False
340.632	0.1	0.598	341.23	0	PA_without_intermediate	test	ward_and_allport	71	27.0	0.598	to_board	poldrack-single-stim	s577	False
341.24	1.0	3.224	341.239	0	PA_without_intermediate	test	ward_and_allport	-1	27.0	n/a	feedback	poldrack-single-stim	s577	False
344.47	1.728	1.728	346.198	1	PA_without_intermediate	test	ward_and_allport	89	28.0	1.728	to_hand	poldrack-single-stim	s577	False
346.199	0.1	0.939	347.138	0	PA_without_intermediate	test	ward_and_allport	82	28.0	0.939	to_board	poldrack-single-stim	s577	False
347.145	0.1	1.114	348.259	0	PA_without_intermediate	test	ward_and_allport	89	28.0	1.114	to_hand	poldrack-single-stim	s577	False
348.261	0.1	0.58	348.841	0	PA_without_intermediate	test	ward_and_allport	71	28.0	0.58	to_board	poldrack-single-stim	s577	False
348.847	0.1	0.397	349.244	0	PA_without_intermediate	test	ward_and_allport	89	28.0	0.397	to_hand	poldrack-single-stim	s577	False
349.245	0.1	0.438	349.683	0	PA_without_intermediate	test	ward_and_allport	82	28.0	0.438	to_board	poldrack-single-stim	s577	False
349.691	1.0	2.272	349.69	0	PA_without_intermediate	test	ward_and_allport	-1	28.0	n/a	feedback	poldrack-single-stim	s577	False
351.969	2.898	2.898	354.867	1	PA_with_intermediate	test	ward_and_allport	82	29.0	2.898	to_hand	poldrack-single-stim	s577	False
354.868	0.1	1.581	356.449	0	PA_with_intermediate	test	ward_and_allport	89	29.0	1.581	to_board	poldrack-single-stim	s577	False
356.457	0.1	0.974	357.431	0	PA_with_intermediate	test	ward_and_allport	82	29.0	0.974	to_hand	poldrack-single-stim	s577	False
357.432	0.1	0.785	358.217	0	PA_with_intermediate	test	ward_and_allport	71	29.0	0.785	to_board	poldrack-single-stim	s577	False
358.224	0.1	0.378	358.602	0	PA_with_intermediate	test	ward_and_allport	89	29.0	0.378	to_hand	poldrack-single-stim	s577	False
358.603	0.1	0.474	359.077	0	PA_with_intermediate	test	ward_and_allport	82	29.0	0.474	to_board	poldrack-single-stim	s577	False
359.088	1.0	3.632	359.087	0	PA_with_intermediate	test	ward_and_allport	-1	29.0	n/a	feedback	poldrack-single-stim	s577	False
367.731	1.508	1.508	369.239	1	PA_without_intermediate	test	ward_and_allport	89	30.0	1.508	to_hand	poldrack-single-stim	s577	False
369.24	0.1	0.94	370.18	0	PA_without_intermediate	test	ward_and_allport	71	30.0	0.94	to_board	poldrack-single-stim	s577	False
370.187	0.1	0.639	370.826	0	PA_without_intermediate	test	ward_and_allport	89	30.0	0.639	to_hand	poldrack-single-stim	s577	False
370.827	0.1	0.433	371.26	0	PA_without_intermediate	test	ward_and_allport	82	30.0	0.433	to_board	poldrack-single-stim	s577	False
371.268	0.1	0.74	372.008	0	PA_without_intermediate	test	ward_and_allport	89	30.0	0.74	to_hand	poldrack-single-stim	s577	False
372.01	0.1	0.33	372.34	0	PA_without_intermediate	test	ward_and_allport	71	30.0	0.33	to_board	poldrack-single-stim	s577	False
372.35	1.0	2.408	372.349	0	PA_without_intermediate	test	ward_and_allport	-1	30.0	n/a	feedback	poldrack-single-stim	s577	False
374.767	3.217	3.217	377.984	1	PA_without_intermediate	test	ward_and_allport	82	31.0	3.217	to_hand	poldrack-single-stim	s577	False
377.985	0.1	0.402	378.387	0	PA_without_intermediate	test	ward_and_allport	71	31.0	0.402	to_board	poldrack-single-stim	s577	False
378.395	0.1	1.076	379.471	0	PA_without_intermediate	test	ward_and_allport	82	31.0	1.076	to_hand	poldrack-single-stim	s577	False
379.473	0.1	1.003	380.476	0	PA_without_intermediate	test	ward_and_allport	89	31.0	1.003	to_board	poldrack-single-stim	s577	False
380.483	0.1	0.453	380.936	0	PA_without_intermediate	test	ward_and_allport	82	31.0	0.453	to_hand	poldrack-single-stim	s577	False
380.937	0.1	0.511	381.448	0	PA_without_intermediate	test	ward_and_allport	71	31.0	0.511	to_board	poldrack-single-stim	s577	False
381.457	1.0	2.0	381.456	0	PA_without_intermediate	test	ward_and_allport	-1	31.0	n/a	feedback	poldrack-single-stim	s577	False
383.467	2.573	2.573	386.04	1	PA_with_intermediate	test	ward_and_allport	71	32.0	2.573	to_hand	poldrack-single-stim	s577	False
386.041	0.1	0.448	386.489	0	PA_with_intermediate	test	ward_and_allport	82	32.0	0.448	to_board	poldrack-single-stim	s577	False
386.496	0.1	0.864	387.36	0	PA_with_intermediate	test	ward_and_allport	71	32.0	0.864	to_hand	poldrack-single-stim	s577	False
387.361	0.1	0.646	388.007	0	PA_with_intermediate	test	ward_and_allport	89	32.0	0.646	to_board	poldrack-single-stim	s577	False
388.015	0.1	1.974	389.989	0	PA_with_intermediate	test	ward_and_allport	82	32.0	1.974	to_hand	poldrack-single-stim	s577	False
389.99	0.1	0.373	390.363	0	PA_with_intermediate	test	ward_and_allport	89	32.0	0.373	to_board	poldrack-single-stim	s577	False
390.375	1.0	2.0	390.374	0	PA_with_intermediate	test	ward_and_allport	-1	32.0	n/a	feedback	poldrack-single-stim	s577	False
392.383	3.716	3.716	396.099	1	PA_with_intermediate	test	ward_and_allport	82	33.0	3.716	to_hand	poldrack-single-stim	s577	False
396.1	0.1	0.455	396.555	0	PA_with_intermediate	test	ward_and_allport	89	33.0	0.455	to_board	poldrack-single-stim	s577	False
396.562	0.1	1.463	398.025	0	PA_with_intermediate	test	ward_and_allport	82	33.0	1.463	to_hand	poldrack-single-stim	s577	False
398.025	0.1	2.03	400.055	0	PA_with_intermediate	test	ward_and_allport	71	33.0	2.03	to_board	poldrack-single-stim	s577	False
400.063	0.1	1.14	401.203	0	PA_with_intermediate	test	ward_and_allport	89	33.0	1.14	to_hand	poldrack-single-stim	s577	False
401.205	0.1	0.352	401.557	0	PA_with_intermediate	test	ward_and_allport	82	33.0	0.352	to_board	poldrack-single-stim	s577	False
401.565	0.1	2.388	403.953	0	PA_with_intermediate	test	ward_and_allport	82	33.0	2.388	to_hand	poldrack-single-stim	s577	False
403.955	0.1	0.425	404.38	0	PA_with_intermediate	test	ward_and_allport	71	33.0	0.425	to_board	poldrack-single-stim	s577	False
404.391	1.0	2.0	404.39	0	PA_with_intermediate	test	ward_and_allport	-1	33.0	n/a	feedback	poldrack-single-stim	s577	False
406.4	2.479	2.479	408.879	1	PA_with_intermediate	test	ward_and_allport	89	34.0	2.479	to_hand	poldrack-single-stim	s577	False
408.88	0.1	0.464	409.344	0	PA_with_intermediate	test	ward_and_allport	82	34.0	0.464	to_board	poldrack-single-stim	s577	False
409.35	0.1	1.538	410.888	0	PA_with_intermediate	test	ward_and_allport	89	34.0	1.538	to_hand	poldrack-single-stim	s577	False
410.889	0.1	0.374	411.263	0	PA_with_intermediate	test	ward_and_allport	71	34.0	0.374	to_board	poldrack-single-stim	s577	False
411.27	0.1	1.829	413.099	0	PA_with_intermediate	test	ward_and_allport	82	34.0	1.829	to_hand	poldrack-single-stim	s577	False
413.1	0.1	0.914	414.014	0	PA_with_intermediate	test	ward_and_allport	89	34.0	0.914	to_board	poldrack-single-stim	s577	False
414.025	1.0	2.408	414.024	0	PA_with_intermediate	test	ward_and_allport	-1	34.0	n/a	feedback	poldrack-single-stim	s577	False
416.444	2.663	2.663	419.107	1	PA_without_intermediate	test	ward_and_allport	71	35.0	2.663	to_hand	poldrack-single-stim	s577	False
419.107	0.1	0.39	419.497	0	PA_without_intermediate	test	ward_and_allport	82	35.0	0.39	to_board	poldrack-single-stim	s577	False
419.508	0.1	1.191	420.699	0	PA_without_intermediate	test	ward_and_allport	71	35.0	1.191	to_hand	poldrack-single-stim	s577	False
420.702	0.1	0.327	421.029	0	PA_without_intermediate	test	ward_and_allport	89	35.0	0.327	to_board	poldrack-single-stim	s577	False
421.036	0.1	0.63	421.666	0	PA_without_intermediate	test	ward_and_allport	71	35.0	0.63	to_hand	poldrack-single-stim	s577	False
421.667	0.1	0.31	421.977	0	PA_without_intermediate	test	ward_and_allport	82	35.0	0.31	to_board	poldrack-single-stim	s577	False
421.986	1.0	2.816	421.985	0	PA_without_intermediate	test	ward_and_allport	-1	35.0	n/a	feedback	poldrack-single-stim	s577	False
424.809	1.551	1.551	426.36	1	PA_with_intermediate	test	ward_and_allport	71	36.0	1.551	to_hand	poldrack-single-stim	s577	False
426.361	0.1	0.978	427.339	0	PA_with_intermediate	test	ward_and_allport	89	36.0	0.978	to_board	poldrack-single-stim	s577	False
427.348	0.1	0.462	427.81	0	PA_with_intermediate	test	ward_and_allport	71	36.0	0.462	to_hand	poldrack-single-stim	s577	False
427.812	0.1	0.393	428.205	0	PA_with_intermediate	test	ward_and_allport	82	36.0	0.393	to_board	poldrack-single-stim	s577	False
428.215	0.1	0.921	429.136	0	PA_with_intermediate	test	ward_and_allport	89	36.0	0.921	to_hand	poldrack-single-stim	s577	False
429.138	0.1	0.717	429.855	0	PA_with_intermediate	test	ward_and_allport	82	36.0	0.717	to_board	poldrack-single-stim	s577	False
429.869	1.0	4.176	429.868	0	PA_with_intermediate	test	ward_and_allport	-1	36.0	n/a	feedback	poldrack-single-stim	s577	False
434.053	3.49	3.49	437.543	1	PA_with_intermediate	test	ward_and_allport	82	37.0	3.49	to_hand	poldrack-single-stim	s577	False
437.545	0.1	0.645	438.19	0	PA_with_intermediate	test	ward_and_allport	89	37.0	0.645	to_board	poldrack-single-stim	s577	False
438.199	0.1	1.151	439.35	0	PA_with_intermediate	test	ward_and_allport	82	37.0	1.151	to_hand	poldrack-single-stim	s577	False
439.351	0.1	0.611	439.962	0	PA_with_intermediate	test	ward_and_allport	71	37.0	0.611	to_board	poldrack-single-stim	s577	False
439.973	0.1	0.431	440.404	0	PA_with_intermediate	test	ward_and_allport	89	37.0	0.431	to_hand	poldrack-single-stim	s577	False
440.404	0.1	0.463	440.867	0	PA_with_intermediate	test	ward_and_allport	82	37.0	0.463	to_board	poldrack-single-stim	s577	False
440.881	1.0	3.36	440.88	0	PA_with_intermediate	test	ward_and_allport	-1	37.0	n/a	feedback	poldrack-single-stim	s577	False
444.25	2.613	2.613	446.863	1	PA_with_intermediate	test	ward_and_allport	71	38.0	2.613	to_hand	poldrack-single-stim	s577	False
446.863	0.1	1.051	447.914	0	PA_with_intermediate	test	ward_and_allport	89	38.0	1.051	to_board	poldrack-single-stim	s577	False
447.92	0.1	0.367	448.287	0	PA_with_intermediate	test	ward_and_allport	71	38.0	0.367	to_hand	poldrack-single-stim	s577	False
448.288	0.1	0.303	448.591	0	PA_with_intermediate	test	ward_and_allport	82	38.0	0.303	to_board	poldrack-single-stim	s577	False
448.6	0.1	1.309	449.909	0	PA_with_intermediate	test	ward_and_allport	89	38.0	1.309	to_hand	poldrack-single-stim	s577	False
449.91	0.1	0.833	450.743	0	PA_with_intermediate	test	ward_and_allport	71	38.0	0.833	to_board	poldrack-single-stim	s577	False
450.755	1.0	2.0	450.754	0	PA_with_intermediate	test	ward_and_allport	-1	38.0	n/a	feedback	poldrack-single-stim	s577	False
452.764	2.649	2.649	455.413	1	PA_without_intermediate	test	ward_and_allport	82	39.0	2.649	to_hand	poldrack-single-stim	s577	False
455.414	0.1	0.481	455.895	0	PA_without_intermediate	test	ward_and_allport	89	39.0	0.481	to_board	poldrack-single-stim	s577	False
455.907	0.1	1.43	457.337	0	PA_without_intermediate	test	ward_and_allport	82	39.0	1.43	to_hand	poldrack-single-stim	s577	False
457.338	0.1	0.661	457.999	0	PA_without_intermediate	test	ward_and_allport	71	39.0	0.661	to_board	poldrack-single-stim	s577	False
458.008	0.1	0.521	458.529	0	PA_without_intermediate	test	ward_and_allport	82	39.0	0.521	to_hand	poldrack-single-stim	s577	False
458.53	0.1	0.479	459.009	0	PA_without_intermediate	test	ward_and_allport	89	39.0	0.479	to_board	poldrack-single-stim	s577	False
459.02	1.0	2.408	459.019	0	PA_without_intermediate	test	ward_and_allport	-1	39.0	n/a	feedback	poldrack-single-stim	s577	False
461.436	1.567	1.567	463.003	1	PA_with_intermediate	test	ward_and_allport	71	40.0	1.567	to_hand	poldrack-single-stim	s577	False
463.004	0.1	1.367	464.371	0	PA_with_intermediate	test	ward_and_allport	89	40.0	1.367	to_board	poldrack-single-stim	s577	False
464.378	0.1	0.521	464.899	0	PA_with_intermediate	test	ward_and_allport	71	40.0	0.521	to_hand	poldrack-single-stim	s577	False
464.9	0.1	0.316	465.216	0	PA_with_intermediate	test	ward_and_allport	82	40.0	0.316	to_board	poldrack-single-stim	s577	False
465.226	0.1	0.412	465.638	0	PA_with_intermediate	test	ward_and_allport	89	40.0	0.412	to_hand	poldrack-single-stim	s577	False
465.639	0.1	0.478	466.117	0	PA_with_intermediate	test	ward_and_allport	82	40.0	0.478	to_board	poldrack-single-stim	s577	False
466.127	1.0	2.816	466.126	0	PA_with_intermediate	test	ward_and_allport	-1	40.0	n/a	feedback	poldrack-single-stim	s577	False
468.95	3.008	3.008	471.958	1	PA_without_intermediate	test	ward_and_allport	82	41.0	3.008	to_hand	poldrack-single-stim	s577	False
471.959	0.1	0.38	472.339	0	PA_without_intermediate	test	ward_and_allport	71	41.0	0.38	to_board	poldrack-single-stim	s577	False
472.347	0.1	0.965	473.312	0	PA_without_intermediate	test	ward_and_allport	82	41.0	0.965	to_hand	poldrack-single-stim	s577	False
473.312	0.1	1.027	474.339	0	PA_without_intermediate	test	ward_and_allport	71	41.0	1.027	to_board	poldrack-single-stim	s577	False
474.349	0.1	0.435	474.784	0	PA_without_intermediate	test	ward_and_allport	82	41.0	0.435	to_hand	poldrack-single-stim	s577	False
474.786	0.1	0.335	475.121	0	PA_without_intermediate	test	ward_and_allport	89	41.0	0.335	to_board	poldrack-single-stim	s577	False
475.135	1.0	3.088	475.134	0	PA_without_intermediate	test	ward_and_allport	-1	41.0	n/a	feedback	poldrack-single-stim	s577	False
478.231	1.643	1.643	479.874	1	PA_without_intermediate	test	ward_and_allport	71	42.0	1.643	to_hand	poldrack-single-stim	s577	False
479.876	0.1	0.455	480.331	0	PA_without_intermediate	test	ward_and_allport	82	42.0	0.455	to_board	poldrack-single-stim	s577	False
480.337	0.1	0.965	481.302	0	PA_without_intermediate	test	ward_and_allport	71	42.0	0.965	to_hand	poldrack-single-stim	s577	False
481.304	0.1	0.454	481.758	0	PA_without_intermediate	test	ward_and_allport	89	42.0	0.454	to_board	poldrack-single-stim	s577	False
481.766	0.1	0.453	482.219	0	PA_without_intermediate	test	ward_and_allport	71	42.0	0.453	to_hand	poldrack-single-stim	s577	False
482.22	0.1	0.404	482.624	0	PA_without_intermediate	test	ward_and_allport	82	42.0	0.404	to_board	poldrack-single-stim	s577	False
482.636	1.0	2.136	482.635	0	PA_without_intermediate	test	ward_and_allport	-1	42.0	n/a	feedback	poldrack-single-stim	s577	False
484.782	1.378	1.378	486.16	1	PA_without_intermediate	test	ward_and_allport	71	43.0	1.378	to_hand	poldrack-single-stim	s577	False
486.161	0.1	0.681	486.842	0	PA_without_intermediate	test	ward_and_allport	89	43.0	0.681	to_board	poldrack-single-stim	s577	False
486.848	0.1	0.819	487.667	0	PA_without_intermediate	test	ward_and_allport	71	43.0	0.819	to_hand	poldrack-single-stim	s577	False
487.669	0.1	0.305	487.974	0	PA_without_intermediate	test	ward_and_allport	82	43.0	0.305	to_board	poldrack-single-stim	s577	False
487.982	0.1	0.395	488.377	0	PA_without_intermediate	test	ward_and_allport	71	43.0	0.395	to_hand	poldrack-single-stim	s577	False
488.378	0.1	0.323	488.701	0	PA_without_intermediate	test	ward_and_allport	89	43.0	0.323	to_board	poldrack-single-stim	s577	False
488.709	1.0	7.168	488.708	0	PA_without_intermediate	test	ward_and_allport	-1	43.0	n/a	feedback	poldrack-single-stim	s577	False
495.884	2.321	2.321	498.205	1	PA_without_intermediate	test	ward_and_allport	89	44.0	2.321	to_hand	poldrack-single-stim	s577	False
498.206	0.1	0.312	498.518	0	PA_without_intermediate	test	ward_and_allport	71	44.0	0.312	to_board	poldrack-single-stim	s577	False
498.526	0.1	0.604	499.13	0	PA_without_intermediate	test	ward_and_allport	89	44.0	0.604	to_hand	poldrack-single-stim	s577	False
499.131	0.1	0.459	499.59	0	PA_without_intermediate	test	ward_and_allport	71	44.0	0.459	to_board	poldrack-single-stim	s577	False
499.599	0.1	0.529	500.128	0	PA_without_intermediate	test	ward_and_allport	89	44.0	0.529	to_hand	poldrack-single-stim	s577	False
500.13	0.1	0.416	500.546	0	PA_without_intermediate	test	ward_and_allport	82	44.0	0.416	to_board	poldrack-single-stim	s577	False
500.56	1.0	2.816	500.559	0	PA_without_intermediate	test	ward_and_allport	-1	44.0	n/a	feedback	poldrack-single-stim	s577	False
508.389	1.516	1.516	509.905	1	PA_with_intermediate	test	ward_and_allport	89	45.0	1.516	to_hand	poldrack-single-stim	s577	False
509.907	0.1	0.995	510.902	0	PA_with_intermediate	test	ward_and_allport	71	45.0	0.995	to_board	poldrack-single-stim	s577	False
510.913	0.1	0.441	511.354	0	PA_with_intermediate	test	ward_and_allport	89	45.0	0.441	to_hand	poldrack-single-stim	s577	False
511.355	0.1	0.434	511.789	0	PA_with_intermediate	test	ward_and_allport	82	45.0	0.434	to_board	poldrack-single-stim	s577	False
511.801	0.1	0.466	512.267	0	PA_with_intermediate	test	ward_and_allport	71	45.0	0.466	to_hand	poldrack-single-stim	s577	False
512.267	0.1	0.3	512.567	0	PA_with_intermediate	test	ward_and_allport	89	45.0	0.3	to_board	poldrack-single-stim	s577	False
512.579	1.0	2.952	512.578	0	PA_with_intermediate	test	ward_and_allport	-1	45.0	n/a	feedback	poldrack-single-stim	s577	False
515.543	2.958	2.958	518.501	1	PA_with_intermediate	test	ward_and_allport	82	46.0	2.958	to_hand	poldrack-single-stim	s577	False
518.502	0.1	1.123	519.625	0	PA_with_intermediate	test	ward_and_allport	71	46.0	1.123	to_board	poldrack-single-stim	s577	False
519.632	0.1	2.205	521.837	0	PA_with_intermediate	test	ward_and_allport	82	46.0	2.205	to_hand	poldrack-single-stim	s577	False
521.839	0.1	1.093	522.932	0	PA_with_intermediate	test	ward_and_allport	89	46.0	1.093	to_board	poldrack-single-stim	s577	False
522.942	0.1	1.422	524.364	0	PA_with_intermediate	test	ward_and_allport	71	46.0	1.422	to_hand	poldrack-single-stim	s577	False
524.365	0.1	0.311	524.676	0	PA_with_intermediate	test	ward_and_allport	89	46.0	0.311	to_board	poldrack-single-stim	s577	False
524.691	1.0	2.136	524.69	0	PA_with_intermediate	test	ward_and_allport	-1	46.0	n/a	feedback	poldrack-single-stim	s577	False
526.838	3.231	3.231	530.069	1	PA_without_intermediate	test	ward_and_allport	82	47.0	3.231	to_hand	poldrack-single-stim	s577	False
530.071	0.1	0.397	530.468	0	PA_without_intermediate	test	ward_and_allport	89	47.0	0.397	to_board	poldrack-single-stim	s577	False
530.479	0.1	1.0	531.479	0	PA_without_intermediate	test	ward_and_allport	82	47.0	1.0	to_hand	poldrack-single-stim	s577	False
531.48	0.1	0.489	531.969	0	PA_without_intermediate	test	ward_and_allport	71	47.0	0.489	to_board	poldrack-single-stim	s577	False
531.98	0.1	0.36	532.34	0	PA_without_intermediate	test	ward_and_allport	82	47.0	0.36	to_hand	poldrack-single-stim	s577	False
532.342	0.1	0.305	532.647	0	PA_without_intermediate	test	ward_and_allport	89	47.0	0.305	to_board	poldrack-single-stim	s577	False
532.659	1.0	2.68	532.658	0	PA_without_intermediate	test	ward_and_allport	-1	47.0	n/a	feedback	poldrack-single-stim	s577	False
