onset	duration	block_duration	movement_onset	planning	condition	exp_stage	experiment_exp_id	key_press	problem_id	response_time	trial_id	trial_type	worker_id	junk
3.005	2.265	2.265	5.27	1	UA_with_intermediate	practice	ward_and_allport	71	0.0	2.265	to_hand	poldrack-single-stim	s636	False
5.272	0.1	3.173	8.445	0	UA_with_intermediate	practice	ward_and_allport	82	0.0	3.173	to_board	poldrack-single-stim	s636	False
8.448	0.1	1.941	10.389	0	UA_with_intermediate	practice	ward_and_allport	71	0.0	1.941	to_hand	poldrack-single-stim	s636	False
10.39	0.1	0.375	10.765	0	UA_with_intermediate	practice	ward_and_allport	89	0.0	0.375	to_board	poldrack-single-stim	s636	False
10.767	0.1	2.489	13.256	0	UA_with_intermediate	practice	ward_and_allport	82	0.0	2.489	to_hand	poldrack-single-stim	s636	False
13.258	0.1	0.933	14.191	0	UA_with_intermediate	practice	ward_and_allport	89	0.0	0.933	to_board	poldrack-single-stim	s636	False
14.196	1.0	2.5	14.195	0	UA_with_intermediate	practice	ward_and_allport	-1	0.0	n/a	feedback	poldrack-single-stim	s636	False
16.698	2.881	2.881	19.579	1	UA_with_intermediate	practice	ward_and_allport	89	1.0	2.881	to_hand	poldrack-single-stim	s636	False
19.58	0.1	3.013	22.593	0	UA_with_intermediate	practice	ward_and_allport	82	1.0	3.013	to_board	poldrack-single-stim	s636	False
22.594	0.1	0.492	23.086	0	UA_with_intermediate	practice	ward_and_allport	71	1.0	0.492	to_hand	poldrack-single-stim	s636	False
23.087	0.1	0.56	23.647	0	UA_with_intermediate	practice	ward_and_allport	89	1.0	0.56	to_board	poldrack-single-stim	s636	False
23.648	0.1	0.87	24.518	0	UA_with_intermediate	practice	ward_and_allport	82	1.0	0.87	to_hand	poldrack-single-stim	s636	False
24.519	0.1	0.494	25.013	0	UA_with_intermediate	practice	ward_and_allport	89	1.0	0.494	to_board	poldrack-single-stim	s636	False
25.015	1.0	2.1	25.014	0	UA_with_intermediate	practice	ward_and_allport	-1	1.0	n/a	feedback	poldrack-single-stim	s636	False
27.118	1.952	1.952	29.07	1	UA_without_intermediate	practice	ward_and_allport	71	2.0	1.952	to_hand	poldrack-single-stim	s636	False
29.071	0.1	4.216	33.287	0	UA_without_intermediate	practice	ward_and_allport	82	2.0	4.216	to_board	poldrack-single-stim	s636	False
33.288	0.1	0.954	34.242	0	UA_without_intermediate	practice	ward_and_allport	71	2.0	0.954	to_hand	poldrack-single-stim	s636	False
34.243	0.1	0.409	34.652	0	UA_without_intermediate	practice	ward_and_allport	89	2.0	0.409	to_board	poldrack-single-stim	s636	False
34.654	0.1	3.687	38.341	0	UA_without_intermediate	practice	ward_and_allport	89	2.0	3.687	to_hand	poldrack-single-stim	s636	False
38.342	0.1	0.841	39.183	0	UA_without_intermediate	practice	ward_and_allport	71	2.0	0.841	to_board	poldrack-single-stim	s636	False
39.185	0.1	1.977	41.162	0	UA_without_intermediate	practice	ward_and_allport	82	2.0	1.977	to_hand	poldrack-single-stim	s636	False
41.163	0.1	0.889	42.052	0	UA_without_intermediate	practice	ward_and_allport	71	2.0	0.889	to_board	poldrack-single-stim	s636	False
42.054	0.1	1.166	43.22	0	UA_without_intermediate	practice	ward_and_allport	82	2.0	1.166	to_hand	poldrack-single-stim	s636	False
43.221	0.1	0.483	43.704	0	UA_without_intermediate	practice	ward_and_allport	89	2.0	0.483	to_board	poldrack-single-stim	s636	False
43.706	0.1	0.745	44.451	0	UA_without_intermediate	practice	ward_and_allport	71	2.0	0.745	to_hand	poldrack-single-stim	s636	False
44.452	0.1	0.411	44.863	0	UA_without_intermediate	practice	ward_and_allport	89	2.0	0.411	to_board	poldrack-single-stim	s636	False
44.865	0.1	0.284	45.149	0	UA_without_intermediate	practice	ward_and_allport	71	2.0	0.284	to_hand	poldrack-single-stim	s636	False
45.151	0.1	0.305	45.456	0	UA_without_intermediate	practice	ward_and_allport	89	2.0	0.305	to_board	poldrack-single-stim	s636	False
45.458	1.0	2.2	45.457	0	UA_without_intermediate	practice	ward_and_allport	-1	2.0	n/a	feedback	poldrack-single-stim	s636	False
47.66	2.808	2.808	50.468	1	UA_without_intermediate	practice	ward_and_allport	71	3.0	2.808	to_hand	poldrack-single-stim	s636	False
50.469	0.1	0.326	50.795	0	UA_without_intermediate	practice	ward_and_allport	89	3.0	0.326	to_board	poldrack-single-stim	s636	False
50.797	0.1	2.123	52.92	0	UA_without_intermediate	practice	ward_and_allport	82	3.0	2.123	to_hand	poldrack-single-stim	s636	False
52.921	0.1	0.748	53.669	0	UA_without_intermediate	practice	ward_and_allport	89	3.0	0.748	to_board	poldrack-single-stim	s636	False
53.671	0.1	0.405	54.076	0	UA_without_intermediate	practice	ward_and_allport	71	3.0	0.405	to_hand	poldrack-single-stim	s636	False
54.077	0.1	0.241	54.318	0	UA_without_intermediate	practice	ward_and_allport	89	3.0	0.241	to_board	poldrack-single-stim	s636	False
54.321	1.0	2.0	54.32	0	UA_without_intermediate	practice	ward_and_allport	-1	3.0	n/a	feedback	poldrack-single-stim	s636	False
58.325	2.4	2.4	60.725	1	PA_without_intermediate	test	ward_and_allport	71	0.0	2.4	to_hand	poldrack-single-stim	s636	False
60.726	0.1	1.105	61.831	0	PA_without_intermediate	test	ward_and_allport	89	0.0	1.105	to_board	poldrack-single-stim	s636	False
61.833	0.1	0.669	62.502	0	PA_without_intermediate	test	ward_and_allport	71	0.0	0.669	to_hand	poldrack-single-stim	s636	False
62.503	0.1	0.741	63.244	0	PA_without_intermediate	test	ward_and_allport	82	0.0	0.741	to_board	poldrack-single-stim	s636	False
63.246	0.1	0.411	63.657	0	PA_without_intermediate	test	ward_and_allport	71	0.0	0.411	to_hand	poldrack-single-stim	s636	False
63.657	0.1	0.262	63.919	0	PA_without_intermediate	test	ward_and_allport	89	0.0	0.262	to_board	poldrack-single-stim	s636	False
63.923	1.0	3.088	63.922	0	PA_without_intermediate	test	ward_and_allport	-1	0.0	n/a	feedback	poldrack-single-stim	s636	False
67.014	3.442	3.442	70.456	1	PA_with_intermediate	test	ward_and_allport	71	1.0	3.442	to_hand	poldrack-single-stim	s636	False
70.457	0.1	3.42	73.877	0	PA_with_intermediate	test	ward_and_allport	82	1.0	3.42	to_board	poldrack-single-stim	s636	False
73.88	0.1	1.192	75.072	0	PA_with_intermediate	test	ward_and_allport	71	1.0	1.192	to_hand	poldrack-single-stim	s636	False
75.073	0.1	0.224	75.297	0	PA_with_intermediate	test	ward_and_allport	89	1.0	0.224	to_board	poldrack-single-stim	s636	False
75.299	0.1	0.403	75.702	0	PA_with_intermediate	test	ward_and_allport	71	1.0	0.403	to_hand	poldrack-single-stim	s636	False
75.704	0.1	1.31	77.014	0	PA_with_intermediate	test	ward_and_allport	71	1.0	1.31	to_board	poldrack-single-stim	s636	False
77.016	0.1	1.2	78.216	0	PA_with_intermediate	test	ward_and_allport	82	1.0	1.2	to_hand	poldrack-single-stim	s636	False
78.217	0.1	0.371	78.588	0	PA_with_intermediate	test	ward_and_allport	89	1.0	0.371	to_board	poldrack-single-stim	s636	False
78.591	1.0	2.0	78.59	0	PA_with_intermediate	test	ward_and_allport	-1	1.0	n/a	feedback	poldrack-single-stim	s636	False
80.595	6.326	6.326	86.921	1	PA_without_intermediate	test	ward_and_allport	82	2.0	6.326	to_hand	poldrack-single-stim	s636	False
86.922	0.1	0.512	87.434	0	PA_without_intermediate	test	ward_and_allport	71	2.0	0.512	to_board	poldrack-single-stim	s636	False
87.435	0.1	1.217	88.652	0	PA_without_intermediate	test	ward_and_allport	82	2.0	1.217	to_hand	poldrack-single-stim	s636	False
88.653	0.1	0.598	89.251	0	PA_without_intermediate	test	ward_and_allport	89	2.0	0.598	to_board	poldrack-single-stim	s636	False
89.255	0.1	1.123	90.378	0	PA_without_intermediate	test	ward_and_allport	82	2.0	1.123	to_hand	poldrack-single-stim	s636	False
90.379	0.1	0.383	90.762	0	PA_without_intermediate	test	ward_and_allport	71	2.0	0.383	to_board	poldrack-single-stim	s636	False
90.764	1.0	2.0	90.763	0	PA_without_intermediate	test	ward_and_allport	-1	2.0	n/a	feedback	poldrack-single-stim	s636	False
92.768	1.489	1.489	94.257	1	PA_without_intermediate	test	ward_and_allport	82	3.0	1.489	to_hand	poldrack-single-stim	s636	False
94.258	0.1	2.001	96.259	0	PA_without_intermediate	test	ward_and_allport	89	3.0	2.001	to_board	poldrack-single-stim	s636	False
96.262	0.1	0.769	97.031	0	PA_without_intermediate	test	ward_and_allport	82	3.0	0.769	to_hand	poldrack-single-stim	s636	False
97.032	0.1	0.466	97.498	0	PA_without_intermediate	test	ward_and_allport	89	3.0	0.466	to_board	poldrack-single-stim	s636	False
97.501	0.1	0.585	98.086	0	PA_without_intermediate	test	ward_and_allport	82	3.0	0.585	to_hand	poldrack-single-stim	s636	False
98.087	0.1	0.495	98.582	0	PA_without_intermediate	test	ward_and_allport	71	3.0	0.495	to_board	poldrack-single-stim	s636	False
98.585	1.0	2.0	98.584	0	PA_without_intermediate	test	ward_and_allport	-1	3.0	n/a	feedback	poldrack-single-stim	s636	False
100.589	1.683	1.683	102.272	1	PA_with_intermediate	test	ward_and_allport	71	4.0	1.683	to_hand	poldrack-single-stim	s636	False
102.273	0.1	3.739	106.012	0	PA_with_intermediate	test	ward_and_allport	89	4.0	3.739	to_board	poldrack-single-stim	s636	False
106.016	0.1	0.679	106.695	0	PA_with_intermediate	test	ward_and_allport	71	4.0	0.679	to_hand	poldrack-single-stim	s636	False
106.697	0.1	0.459	107.156	0	PA_with_intermediate	test	ward_and_allport	82	4.0	0.459	to_board	poldrack-single-stim	s636	False
107.159	0.1	0.477	107.636	0	PA_with_intermediate	test	ward_and_allport	89	4.0	0.477	to_hand	poldrack-single-stim	s636	False
107.637	0.1	0.295	107.932	0	PA_with_intermediate	test	ward_and_allport	71	4.0	0.295	to_board	poldrack-single-stim	s636	False
107.935	0.1	1.053	108.988	0	PA_with_intermediate	test	ward_and_allport	71	4.0	1.053	to_hand	poldrack-single-stim	s636	False
108.99	0.1	0.351	109.341	0	PA_with_intermediate	test	ward_and_allport	82	4.0	0.351	to_board	poldrack-single-stim	s636	False
109.346	1.0	2.544	109.345	0	PA_with_intermediate	test	ward_and_allport	-1	4.0	n/a	feedback	poldrack-single-stim	s636	False
111.895	4.228	4.228	116.123	1	PA_without_intermediate	test	ward_and_allport	82	5.0	4.228	to_hand	poldrack-single-stim	s636	False
116.124	0.1	0.608	116.732	0	PA_without_intermediate	test	ward_and_allport	89	5.0	0.608	to_board	poldrack-single-stim	s636	False
116.735	0.1	0.992	117.727	0	PA_without_intermediate	test	ward_and_allport	82	5.0	0.992	to_hand	poldrack-single-stim	s636	False
117.728	0.1	0.576	118.304	0	PA_without_intermediate	test	ward_and_allport	89	5.0	0.576	to_board	poldrack-single-stim	s636	False
118.308	0.1	1.081	119.389	0	PA_without_intermediate	test	ward_and_allport	82	5.0	1.081	to_hand	poldrack-single-stim	s636	False
119.39	0.1	0.491	119.881	0	PA_without_intermediate	test	ward_and_allport	71	5.0	0.491	to_board	poldrack-single-stim	s636	False
119.884	1.0	2.272	119.883	0	PA_without_intermediate	test	ward_and_allport	-1	5.0	n/a	feedback	poldrack-single-stim	s636	False
122.159	3.906	3.906	126.065	1	PA_with_intermediate	test	ward_and_allport	82	6.0	3.906	to_hand	poldrack-single-stim	s636	False
126.066	0.1	0.369	126.435	0	PA_with_intermediate	test	ward_and_allport	71	6.0	0.369	to_board	poldrack-single-stim	s636	False
126.438	0.1	0.402	126.84	0	PA_with_intermediate	test	ward_and_allport	82	6.0	0.402	to_hand	poldrack-single-stim	s636	False
126.841	0.1	0.391	127.232	0	PA_with_intermediate	test	ward_and_allport	89	6.0	0.391	to_board	poldrack-single-stim	s636	False
127.235	0.1	0.562	127.797	0	PA_with_intermediate	test	ward_and_allport	71	6.0	0.562	to_hand	poldrack-single-stim	s636	False
127.798	0.1	0.361	128.159	0	PA_with_intermediate	test	ward_and_allport	82	6.0	0.361	to_board	poldrack-single-stim	s636	False
128.163	1.0	4.04	128.162	0	PA_with_intermediate	test	ward_and_allport	-1	6.0	n/a	feedback	poldrack-single-stim	s636	False
132.206	3.718	3.718	135.924	1	PA_with_intermediate	test	ward_and_allport	82	7.0	3.718	to_hand	poldrack-single-stim	s636	False
135.925	0.1	0.446	136.371	0	PA_with_intermediate	test	ward_and_allport	89	7.0	0.446	to_board	poldrack-single-stim	s636	False
136.374	0.1	0.372	136.746	0	PA_with_intermediate	test	ward_and_allport	82	7.0	0.372	to_hand	poldrack-single-stim	s636	False
136.747	0.1	0.632	137.379	0	PA_with_intermediate	test	ward_and_allport	71	7.0	0.632	to_board	poldrack-single-stim	s636	False
137.383	0.1	0.553	137.936	0	PA_with_intermediate	test	ward_and_allport	89	7.0	0.553	to_hand	poldrack-single-stim	s636	False
137.937	0.1	0.354	138.291	0	PA_with_intermediate	test	ward_and_allport	82	7.0	0.354	to_board	poldrack-single-stim	s636	False
138.295	1.0	2.272	138.294	0	PA_with_intermediate	test	ward_and_allport	-1	7.0	n/a	feedback	poldrack-single-stim	s636	False
140.57	3.204	3.204	143.774	1	PA_with_intermediate	test	ward_and_allport	89	8.0	3.204	to_hand	poldrack-single-stim	s636	False
143.775	0.1	0.487	144.262	0	PA_with_intermediate	test	ward_and_allport	82	8.0	0.487	to_board	poldrack-single-stim	s636	False
144.266	0.1	0.704	144.97	0	PA_with_intermediate	test	ward_and_allport	89	8.0	0.704	to_hand	poldrack-single-stim	s636	False
144.971	0.1	0.583	145.554	0	PA_with_intermediate	test	ward_and_allport	71	8.0	0.583	to_board	poldrack-single-stim	s636	False
145.559	0.1	1.071	146.63	0	PA_with_intermediate	test	ward_and_allport	82	8.0	1.071	to_hand	poldrack-single-stim	s636	False
146.63	0.1	0.445	147.075	0	PA_with_intermediate	test	ward_and_allport	89	8.0	0.445	to_board	poldrack-single-stim	s636	False
147.08	1.0	2.136	147.079	0	PA_with_intermediate	test	ward_and_allport	-1	8.0	n/a	feedback	poldrack-single-stim	s636	False
149.219	2.282	2.282	151.501	1	PA_with_intermediate	test	ward_and_allport	71	9.0	2.282	to_hand	poldrack-single-stim	s636	False
151.503	0.1	1.656	153.159	0	PA_with_intermediate	test	ward_and_allport	82	9.0	1.656	to_board	poldrack-single-stim	s636	False
153.163	0.1	0.351	153.514	0	PA_with_intermediate	test	ward_and_allport	71	9.0	0.351	to_hand	poldrack-single-stim	s636	False
153.515	0.1	0.251	153.766	0	PA_with_intermediate	test	ward_and_allport	89	9.0	0.251	to_board	poldrack-single-stim	s636	False
153.769	0.1	1.309	155.078	0	PA_with_intermediate	test	ward_and_allport	82	9.0	1.309	to_hand	poldrack-single-stim	s636	False
155.079	0.1	0.254	155.333	0	PA_with_intermediate	test	ward_and_allport	89	9.0	0.254	to_board	poldrack-single-stim	s636	False
155.338	0.1	1.172	156.51	0	PA_with_intermediate	test	ward_and_allport	89	9.0	1.172	to_hand	poldrack-single-stim	s636	False
156.511	0.1	0.241	156.752	0	PA_with_intermediate	test	ward_and_allport	82	9.0	0.241	to_board	poldrack-single-stim	s636	False
156.757	0.1	0.167	156.924	0	PA_with_intermediate	test	ward_and_allport	71	9.0	0.167	to_hand	poldrack-single-stim	s636	False
156.925	0.1	0.777	157.702	0	PA_with_intermediate	test	ward_and_allport	71	9.0	0.777	to_board	poldrack-single-stim	s636	False
157.707	0.1	1.213	158.92	0	PA_with_intermediate	test	ward_and_allport	82	9.0	1.213	to_hand	poldrack-single-stim	s636	False
158.921	0.1	0.404	159.325	0	PA_with_intermediate	test	ward_and_allport	71	9.0	0.404	to_board	poldrack-single-stim	s636	False
159.329	1.0	2.0	159.328	0	PA_with_intermediate	test	ward_and_allport	-1	9.0	n/a	feedback	poldrack-single-stim	s636	False
161.334	3.099	3.099	164.433	1	PA_with_intermediate	test	ward_and_allport	89	10.0	3.099	to_hand	poldrack-single-stim	s636	False
164.434	0.1	2.461	166.895	0	PA_with_intermediate	test	ward_and_allport	82	10.0	2.461	to_board	poldrack-single-stim	s636	False
166.9	0.1	0.526	167.426	0	PA_with_intermediate	test	ward_and_allport	89	10.0	0.526	to_hand	poldrack-single-stim	s636	False
167.427	0.1	0.301	167.728	0	PA_with_intermediate	test	ward_and_allport	71	10.0	0.301	to_board	poldrack-single-stim	s636	False
167.732	0.1	0.304	168.036	0	PA_with_intermediate	test	ward_and_allport	82	10.0	0.304	to_hand	poldrack-single-stim	s636	False
168.038	0.1	0.226	168.264	0	PA_with_intermediate	test	ward_and_allport	89	10.0	0.226	to_board	poldrack-single-stim	s636	False
168.269	1.0	2.0	168.268	0	PA_with_intermediate	test	ward_and_allport	-1	10.0	n/a	feedback	poldrack-single-stim	s636	False
170.273	2.876	2.876	173.149	1	PA_without_intermediate	test	ward_and_allport	89	11.0	2.876	to_hand	poldrack-single-stim	s636	False
173.15	0.1	0.888	174.038	0	PA_without_intermediate	test	ward_and_allport	71	11.0	0.888	to_board	poldrack-single-stim	s636	False
174.043	0.1	0.401	174.444	0	PA_without_intermediate	test	ward_and_allport	89	11.0	0.401	to_hand	poldrack-single-stim	s636	False
174.444	0.1	0.377	174.821	0	PA_without_intermediate	test	ward_and_allport	82	11.0	0.377	to_board	poldrack-single-stim	s636	False
174.826	0.1	0.341	175.167	0	PA_without_intermediate	test	ward_and_allport	89	11.0	0.341	to_hand	poldrack-single-stim	s636	False
175.169	0.1	0.46	175.629	0	PA_without_intermediate	test	ward_and_allport	71	11.0	0.46	to_board	poldrack-single-stim	s636	False
175.633	1.0	2.408	175.632	0	PA_without_intermediate	test	ward_and_allport	-1	11.0	n/a	feedback	poldrack-single-stim	s636	False
178.045	4.676	4.676	182.721	1	PA_with_intermediate	test	ward_and_allport	82	12.0	4.676	to_hand	poldrack-single-stim	s636	False
182.722	0.1	0.958	183.68	0	PA_with_intermediate	test	ward_and_allport	71	12.0	0.958	to_board	poldrack-single-stim	s636	False
183.685	0.1	0.363	184.048	0	PA_with_intermediate	test	ward_and_allport	82	12.0	0.363	to_hand	poldrack-single-stim	s636	False
184.05	0.1	0.36	184.41	0	PA_with_intermediate	test	ward_and_allport	89	12.0	0.36	to_board	poldrack-single-stim	s636	False
184.415	0.1	0.385	184.8	0	PA_with_intermediate	test	ward_and_allport	82	12.0	0.385	to_hand	poldrack-single-stim	s636	False
184.8	0.1	0.881	185.681	0	PA_with_intermediate	test	ward_and_allport	89	12.0	0.881	to_board	poldrack-single-stim	s636	False
185.688	0.1	0.854	186.542	0	PA_with_intermediate	test	ward_and_allport	89	12.0	0.854	to_hand	poldrack-single-stim	s636	False
186.544	0.1	0.359	186.903	0	PA_with_intermediate	test	ward_and_allport	82	12.0	0.359	to_board	poldrack-single-stim	s636	False
186.912	0.1	0.473	187.385	0	PA_with_intermediate	test	ward_and_allport	71	12.0	0.473	to_hand	poldrack-single-stim	s636	False
187.386	0.1	0.287	187.673	0	PA_with_intermediate	test	ward_and_allport	89	12.0	0.287	to_board	poldrack-single-stim	s636	False
187.678	1.0	3.768	187.677	0	PA_with_intermediate	test	ward_and_allport	-1	12.0	n/a	feedback	poldrack-single-stim	s636	False
191.45	2.862	2.862	194.312	1	PA_with_intermediate	test	ward_and_allport	71	13.0	2.862	to_hand	poldrack-single-stim	s636	False
194.314	0.1	1.219	195.533	0	PA_with_intermediate	test	ward_and_allport	89	13.0	1.219	to_board	poldrack-single-stim	s636	False
195.538	0.1	0.33	195.868	0	PA_with_intermediate	test	ward_and_allport	71	13.0	0.33	to_hand	poldrack-single-stim	s636	False
195.869	0.1	0.323	196.192	0	PA_with_intermediate	test	ward_and_allport	82	13.0	0.323	to_board	poldrack-single-stim	s636	False
196.196	0.1	0.253	196.449	0	PA_with_intermediate	test	ward_and_allport	89	13.0	0.253	to_hand	poldrack-single-stim	s636	False
196.451	0.1	0.369	196.82	0	PA_with_intermediate	test	ward_and_allport	71	13.0	0.369	to_board	poldrack-single-stim	s636	False
196.825	1.0	2.68	196.824	0	PA_with_intermediate	test	ward_and_allport	-1	13.0	n/a	feedback	poldrack-single-stim	s636	False
199.509	3.188	3.188	202.697	1	PA_without_intermediate	test	ward_and_allport	89	14.0	3.188	to_hand	poldrack-single-stim	s636	False
202.698	0.1	0.441	203.139	0	PA_without_intermediate	test	ward_and_allport	82	14.0	0.441	to_board	poldrack-single-stim	s636	False
203.143	0.1	1.03	204.173	0	PA_without_intermediate	test	ward_and_allport	89	14.0	1.03	to_hand	poldrack-single-stim	s636	False
204.174	0.1	0.43	204.604	0	PA_without_intermediate	test	ward_and_allport	71	14.0	0.43	to_board	poldrack-single-stim	s636	False
204.608	0.1	0.409	205.017	0	PA_without_intermediate	test	ward_and_allport	89	14.0	0.409	to_hand	poldrack-single-stim	s636	False
205.018	0.1	0.31	205.328	0	PA_without_intermediate	test	ward_and_allport	71	14.0	0.31	to_board	poldrack-single-stim	s636	False
205.333	0.1	0.878	206.211	0	PA_without_intermediate	test	ward_and_allport	71	14.0	0.878	to_hand	poldrack-single-stim	s636	False
206.213	0.1	0.301	206.514	0	PA_without_intermediate	test	ward_and_allport	82	14.0	0.301	to_board	poldrack-single-stim	s636	False
206.518	1.0	3.224	206.517	0	PA_without_intermediate	test	ward_and_allport	-1	14.0	n/a	feedback	poldrack-single-stim	s636	False
214.749	4.028	4.028	218.777	1	PA_without_intermediate	test	ward_and_allport	89	15.0	4.028	to_hand	poldrack-single-stim	s636	False
218.778	0.1	1.133	219.911	0	PA_without_intermediate	test	ward_and_allport	71	15.0	1.133	to_board	poldrack-single-stim	s636	False
219.916	0.1	0.29	220.206	0	PA_without_intermediate	test	ward_and_allport	89	15.0	0.29	to_hand	poldrack-single-stim	s636	False
220.207	0.1	0.637	220.844	0	PA_without_intermediate	test	ward_and_allport	71	15.0	0.637	to_board	poldrack-single-stim	s636	False
220.85	0.1	0.226	221.076	0	PA_without_intermediate	test	ward_and_allport	89	15.0	0.226	to_hand	poldrack-single-stim	s636	False
221.078	0.1	0.319	221.397	0	PA_without_intermediate	test	ward_and_allport	82	15.0	0.319	to_board	poldrack-single-stim	s636	False
221.402	1.0	3.36	221.401	0	PA_without_intermediate	test	ward_and_allport	-1	15.0	n/a	feedback	poldrack-single-stim	s636	False
224.767	3.677	3.677	228.444	1	PA_without_intermediate	test	ward_and_allport	82	16.0	3.677	to_hand	poldrack-single-stim	s636	False
228.445	0.1	0.531	228.976	0	PA_without_intermediate	test	ward_and_allport	89	16.0	0.531	to_board	poldrack-single-stim	s636	False
228.982	0.1	1.828	230.81	0	PA_without_intermediate	test	ward_and_allport	82	16.0	1.828	to_hand	poldrack-single-stim	s636	False
230.81	0.1	0.421	231.231	0	PA_without_intermediate	test	ward_and_allport	71	16.0	0.421	to_board	poldrack-single-stim	s636	False
231.235	0.1	0.474	231.709	0	PA_without_intermediate	test	ward_and_allport	82	16.0	0.474	to_hand	poldrack-single-stim	s636	False
231.71	0.1	0.399	232.109	0	PA_without_intermediate	test	ward_and_allport	89	16.0	0.399	to_board	poldrack-single-stim	s636	False
232.115	1.0	2.0	232.114	0	PA_without_intermediate	test	ward_and_allport	-1	16.0	n/a	feedback	poldrack-single-stim	s636	False
234.119	2.283	2.283	236.402	1	PA_without_intermediate	test	ward_and_allport	71	17.0	2.283	to_hand	poldrack-single-stim	s636	False
236.403	0.1	0.335	236.738	0	PA_without_intermediate	test	ward_and_allport	89	17.0	0.335	to_board	poldrack-single-stim	s636	False
236.744	0.1	0.372	237.116	0	PA_without_intermediate	test	ward_and_allport	71	17.0	0.372	to_hand	poldrack-single-stim	s636	False
237.117	0.1	0.308	237.425	0	PA_without_intermediate	test	ward_and_allport	89	17.0	0.308	to_board	poldrack-single-stim	s636	False
237.431	0.1	0.604	238.035	0	PA_without_intermediate	test	ward_and_allport	71	17.0	0.604	to_hand	poldrack-single-stim	s636	False
238.036	0.1	0.288	238.324	0	PA_without_intermediate	test	ward_and_allport	82	17.0	0.288	to_board	poldrack-single-stim	s636	False
238.331	1.0	2.408	238.33	0	PA_without_intermediate	test	ward_and_allport	-1	17.0	n/a	feedback	poldrack-single-stim	s636	False
240.745	4.134	4.134	244.879	1	PA_with_intermediate	test	ward_and_allport	89	18.0	4.134	to_hand	poldrack-single-stim	s636	False
244.88	0.1	0.736	245.616	0	PA_with_intermediate	test	ward_and_allport	71	18.0	0.736	to_board	poldrack-single-stim	s636	False
245.623	0.1	0.32	245.943	0	PA_with_intermediate	test	ward_and_allport	89	18.0	0.32	to_hand	poldrack-single-stim	s636	False
245.944	0.1	0.971	246.915	0	PA_with_intermediate	test	ward_and_allport	82	18.0	0.971	to_board	poldrack-single-stim	s636	False
246.921	0.1	0.483	247.404	0	PA_with_intermediate	test	ward_and_allport	71	18.0	0.483	to_hand	poldrack-single-stim	s636	False
247.405	0.1	0.41	247.815	0	PA_with_intermediate	test	ward_and_allport	82	18.0	0.41	to_board	poldrack-single-stim	s636	False
247.822	1.0	2.136	247.821	0	PA_with_intermediate	test	ward_and_allport	-1	18.0	n/a	feedback	poldrack-single-stim	s636	False
249.964	4.563	4.563	254.527	1	PA_without_intermediate	test	ward_and_allport	89	19.0	4.563	to_hand	poldrack-single-stim	s636	False
254.529	0.1	0.441	254.97	0	PA_without_intermediate	test	ward_and_allport	71	19.0	0.441	to_board	poldrack-single-stim	s636	False
254.978	0.1	1.266	256.244	0	PA_without_intermediate	test	ward_and_allport	89	19.0	1.266	to_hand	poldrack-single-stim	s636	False
256.246	0.1	0.395	256.641	0	PA_without_intermediate	test	ward_and_allport	82	19.0	0.395	to_board	poldrack-single-stim	s636	False
256.65	0.1	0.616	257.266	0	PA_without_intermediate	test	ward_and_allport	89	19.0	0.616	to_hand	poldrack-single-stim	s636	False
257.267	0.1	0.342	257.609	0	PA_without_intermediate	test	ward_and_allport	71	19.0	0.342	to_board	poldrack-single-stim	s636	False
257.616	1.0	5.128	257.615	0	PA_without_intermediate	test	ward_and_allport	-1	19.0	n/a	feedback	poldrack-single-stim	s636	False
262.751	2.222	2.222	264.973	1	PA_without_intermediate	test	ward_and_allport	71	20.0	2.222	to_hand	poldrack-single-stim	s636	False
264.973	0.1	0.43	265.403	0	PA_without_intermediate	test	ward_and_allport	82	20.0	0.43	to_board	poldrack-single-stim	s636	False
265.409	0.1	0.318	265.727	0	PA_without_intermediate	test	ward_and_allport	71	20.0	0.318	to_hand	poldrack-single-stim	s636	False
265.728	0.1	0.291	266.019	0	PA_without_intermediate	test	ward_and_allport	82	20.0	0.291	to_board	poldrack-single-stim	s636	False
266.025	0.1	0.489	266.514	0	PA_without_intermediate	test	ward_and_allport	71	20.0	0.489	to_hand	poldrack-single-stim	s636	False
266.515	0.1	0.245	266.76	0	PA_without_intermediate	test	ward_and_allport	89	20.0	0.245	to_board	poldrack-single-stim	s636	False
266.768	1.0	2.136	266.767	0	PA_without_intermediate	test	ward_and_allport	-1	20.0	n/a	feedback	poldrack-single-stim	s636	False
268.91	3.805	3.805	272.715	1	PA_without_intermediate	test	ward_and_allport	89	21.0	3.805	to_hand	poldrack-single-stim	s636	False
272.717	0.1	0.456	273.173	0	PA_without_intermediate	test	ward_and_allport	82	21.0	0.456	to_board	poldrack-single-stim	s636	False
273.179	0.1	1.154	274.333	0	PA_without_intermediate	test	ward_and_allport	89	21.0	1.154	to_hand	poldrack-single-stim	s636	False
274.335	0.1	0.351	274.686	0	PA_without_intermediate	test	ward_and_allport	82	21.0	0.351	to_board	poldrack-single-stim	s636	False
274.692	0.1	0.604	275.296	0	PA_without_intermediate	test	ward_and_allport	89	21.0	0.604	to_hand	poldrack-single-stim	s636	False
275.297	0.1	0.596	275.893	0	PA_without_intermediate	test	ward_and_allport	71	21.0	0.596	to_board	poldrack-single-stim	s636	False
275.9	1.0	5.264	275.899	0	PA_without_intermediate	test	ward_and_allport	-1	21.0	n/a	feedback	poldrack-single-stim	s636	False
281.171	2.137	2.137	283.308	1	PA_with_intermediate	test	ward_and_allport	82	22.0	2.137	to_hand	poldrack-single-stim	s636	False
283.309	0.1	0.468	283.777	0	PA_with_intermediate	test	ward_and_allport	71	22.0	0.468	to_board	poldrack-single-stim	s636	False
283.784	0.1	0.314	284.098	0	PA_with_intermediate	test	ward_and_allport	82	22.0	0.314	to_hand	poldrack-single-stim	s636	False
284.099	0.1	0.438	284.537	0	PA_with_intermediate	test	ward_and_allport	89	22.0	0.438	to_board	poldrack-single-stim	s636	False
284.545	0.1	0.6	285.145	0	PA_with_intermediate	test	ward_and_allport	71	22.0	0.6	to_hand	poldrack-single-stim	s636	False
285.147	0.1	0.3	285.447	0	PA_with_intermediate	test	ward_and_allport	89	22.0	0.3	to_board	poldrack-single-stim	s636	False
285.455	1.0	4.04	285.454	0	PA_with_intermediate	test	ward_and_allport	-1	22.0	n/a	feedback	poldrack-single-stim	s636	False
289.503	2.904	2.904	292.407	1	PA_with_intermediate	test	ward_and_allport	89	23.0	2.904	to_hand	poldrack-single-stim	s636	False
292.407	0.1	0.46	292.867	0	PA_with_intermediate	test	ward_and_allport	71	23.0	0.46	to_board	poldrack-single-stim	s636	False
292.874	0.1	0.628	293.502	0	PA_with_intermediate	test	ward_and_allport	89	23.0	0.628	to_hand	poldrack-single-stim	s636	False
293.503	0.1	0.423	293.926	0	PA_with_intermediate	test	ward_and_allport	82	23.0	0.423	to_board	poldrack-single-stim	s636	False
293.933	0.1	0.32	294.253	0	PA_with_intermediate	test	ward_and_allport	71	23.0	0.32	to_hand	poldrack-single-stim	s636	False
294.254	0.1	0.247	294.501	0	PA_with_intermediate	test	ward_and_allport	89	23.0	0.247	to_board	poldrack-single-stim	s636	False
294.509	1.0	2.136	294.508	0	PA_with_intermediate	test	ward_and_allport	-1	23.0	n/a	feedback	poldrack-single-stim	s636	False
296.651	1.427	1.427	298.078	1	PA_with_intermediate	test	ward_and_allport	82	24.0	1.427	to_hand	poldrack-single-stim	s636	False
298.08	0.1	1.827	299.907	0	PA_with_intermediate	test	ward_and_allport	71	24.0	1.827	to_board	poldrack-single-stim	s636	False
299.914	0.1	0.257	300.171	0	PA_with_intermediate	test	ward_and_allport	82	24.0	0.257	to_hand	poldrack-single-stim	s636	False
300.172	0.1	0.706	300.878	0	PA_with_intermediate	test	ward_and_allport	89	24.0	0.706	to_board	poldrack-single-stim	s636	False
300.884	0.1	0.67	301.554	0	PA_with_intermediate	test	ward_and_allport	71	24.0	0.67	to_hand	poldrack-single-stim	s636	False
301.556	0.1	0.26	301.816	0	PA_with_intermediate	test	ward_and_allport	82	24.0	0.26	to_board	poldrack-single-stim	s636	False
301.823	1.0	2.408	301.822	0	PA_with_intermediate	test	ward_and_allport	-1	24.0	n/a	feedback	poldrack-single-stim	s636	False
304.241	2.961	2.961	307.202	1	PA_without_intermediate	test	ward_and_allport	89	25.0	2.961	to_hand	poldrack-single-stim	s636	False
307.203	0.1	0.393	307.596	0	PA_without_intermediate	test	ward_and_allport	82	25.0	0.393	to_board	poldrack-single-stim	s636	False
307.603	0.1	1.111	308.714	0	PA_without_intermediate	test	ward_and_allport	89	25.0	1.111	to_hand	poldrack-single-stim	s636	False
308.715	0.1	0.409	309.124	0	PA_without_intermediate	test	ward_and_allport	71	25.0	0.409	to_board	poldrack-single-stim	s636	False
309.132	0.1	0.263	309.395	0	PA_without_intermediate	test	ward_and_allport	89	25.0	0.263	to_hand	poldrack-single-stim	s636	False
309.397	0.1	0.637	310.034	0	PA_without_intermediate	test	ward_and_allport	82	25.0	0.637	to_board	poldrack-single-stim	s636	False
310.042	1.0	2.68	310.041	0	PA_without_intermediate	test	ward_and_allport	-1	25.0	n/a	feedback	poldrack-single-stim	s636	False
312.73	1.379	1.379	314.109	1	PA_with_intermediate	test	ward_and_allport	89	26.0	1.379	to_hand	poldrack-single-stim	s636	False
314.111	0.1	0.768	314.879	0	PA_with_intermediate	test	ward_and_allport	71	26.0	0.768	to_board	poldrack-single-stim	s636	False
314.886	0.1	1.048	315.934	0	PA_with_intermediate	test	ward_and_allport	89	26.0	1.048	to_hand	poldrack-single-stim	s636	False
315.936	0.1	0.287	316.223	0	PA_with_intermediate	test	ward_and_allport	82	26.0	0.287	to_board	poldrack-single-stim	s636	False
316.23	0.1	0.372	316.602	0	PA_with_intermediate	test	ward_and_allport	71	26.0	0.372	to_hand	poldrack-single-stim	s636	False
316.603	0.1	0.257	316.86	0	PA_with_intermediate	test	ward_and_allport	89	26.0	0.257	to_board	poldrack-single-stim	s636	False
316.868	1.0	4.72	316.867	0	PA_with_intermediate	test	ward_and_allport	-1	26.0	n/a	feedback	poldrack-single-stim	s636	False
321.595	1.344	1.344	322.939	1	PA_without_intermediate	test	ward_and_allport	82	27.0	1.344	to_hand	poldrack-single-stim	s636	False
322.94	0.1	1.146	324.086	0	PA_without_intermediate	test	ward_and_allport	71	27.0	1.146	to_board	poldrack-single-stim	s636	False
324.094	0.1	0.268	324.362	0	PA_without_intermediate	test	ward_and_allport	82	27.0	0.268	to_hand	poldrack-single-stim	s636	False
324.362	0.1	0.951	325.313	0	PA_without_intermediate	test	ward_and_allport	71	27.0	0.951	to_board	poldrack-single-stim	s636	False
325.32	0.1	0.349	325.669	0	PA_without_intermediate	test	ward_and_allport	82	27.0	0.349	to_hand	poldrack-single-stim	s636	False
325.671	0.1	0.344	326.015	0	PA_without_intermediate	test	ward_and_allport	89	27.0	0.344	to_board	poldrack-single-stim	s636	False
326.025	1.0	3.224	326.024	0	PA_without_intermediate	test	ward_and_allport	-1	27.0	n/a	feedback	poldrack-single-stim	s636	False
329.257	1.532	1.532	330.789	1	PA_without_intermediate	test	ward_and_allport	82	28.0	1.532	to_hand	poldrack-single-stim	s636	False
330.79	0.1	0.384	331.174	0	PA_without_intermediate	test	ward_and_allport	71	28.0	0.384	to_board	poldrack-single-stim	s636	False
331.182	0.1	0.25	331.432	0	PA_without_intermediate	test	ward_and_allport	82	28.0	0.25	to_hand	poldrack-single-stim	s636	False
331.433	0.1	0.24	331.673	0	PA_without_intermediate	test	ward_and_allport	71	28.0	0.24	to_board	poldrack-single-stim	s636	False
331.682	0.1	0.416	332.098	0	PA_without_intermediate	test	ward_and_allport	82	28.0	0.416	to_hand	poldrack-single-stim	s636	False
332.1	0.1	0.319	332.419	0	PA_without_intermediate	test	ward_and_allport	89	28.0	0.319	to_board	poldrack-single-stim	s636	False
332.427	1.0	2.272	332.426	0	PA_without_intermediate	test	ward_and_allport	-1	28.0	n/a	feedback	poldrack-single-stim	s636	False
334.709	2.232	2.232	336.941	1	PA_with_intermediate	test	ward_and_allport	71	29.0	2.232	to_hand	poldrack-single-stim	s636	False
336.942	0.1	1.447	338.389	0	PA_with_intermediate	test	ward_and_allport	82	29.0	1.447	to_board	poldrack-single-stim	s636	False
338.396	0.1	0.273	338.669	0	PA_with_intermediate	test	ward_and_allport	71	29.0	0.273	to_hand	poldrack-single-stim	s636	False
338.67	0.1	0.819	339.489	0	PA_with_intermediate	test	ward_and_allport	89	29.0	0.819	to_board	poldrack-single-stim	s636	False
339.499	0.1	0.85	340.349	0	PA_with_intermediate	test	ward_and_allport	82	29.0	0.85	to_hand	poldrack-single-stim	s636	False
340.35	0.1	0.25	340.6	0	PA_with_intermediate	test	ward_and_allport	71	29.0	0.25	to_board	poldrack-single-stim	s636	False
340.609	1.0	3.632	340.608	0	PA_with_intermediate	test	ward_and_allport	-1	29.0	n/a	feedback	poldrack-single-stim	s636	False
349.252	1.711	1.711	350.963	1	PA_without_intermediate	test	ward_and_allport	82	30.0	1.711	to_hand	poldrack-single-stim	s636	False
350.964	0.1	0.308	351.272	0	PA_without_intermediate	test	ward_and_allport	71	30.0	0.308	to_board	poldrack-single-stim	s636	False
351.283	0.1	0.362	351.645	0	PA_without_intermediate	test	ward_and_allport	82	30.0	0.362	to_hand	poldrack-single-stim	s636	False
351.646	0.1	0.354	352.0	0	PA_without_intermediate	test	ward_and_allport	89	30.0	0.354	to_board	poldrack-single-stim	s636	False
352.009	0.1	0.352	352.361	0	PA_without_intermediate	test	ward_and_allport	82	30.0	0.352	to_hand	poldrack-single-stim	s636	False
352.362	0.1	0.255	352.617	0	PA_without_intermediate	test	ward_and_allport	71	30.0	0.255	to_board	poldrack-single-stim	s636	False
352.627	1.0	2.408	352.626	0	PA_without_intermediate	test	ward_and_allport	-1	30.0	n/a	feedback	poldrack-single-stim	s636	False
355.043	1.399	1.399	356.442	1	PA_without_intermediate	test	ward_and_allport	71	31.0	1.399	to_hand	poldrack-single-stim	s636	False
356.443	0.1	0.293	356.736	0	PA_without_intermediate	test	ward_and_allport	82	31.0	0.293	to_board	poldrack-single-stim	s636	False
356.742	0.1	0.274	357.016	0	PA_without_intermediate	test	ward_and_allport	71	31.0	0.274	to_hand	poldrack-single-stim	s636	False
357.017	0.1	0.332	357.349	0	PA_without_intermediate	test	ward_and_allport	89	31.0	0.332	to_board	poldrack-single-stim	s636	False
357.356	0.1	0.893	358.249	0	PA_without_intermediate	test	ward_and_allport	71	31.0	0.893	to_hand	poldrack-single-stim	s636	False
358.25	0.1	0.252	358.502	0	PA_without_intermediate	test	ward_and_allport	82	31.0	0.252	to_board	poldrack-single-stim	s636	False
358.509	1.0	2.0	358.508	0	PA_without_intermediate	test	ward_and_allport	-1	31.0	n/a	feedback	poldrack-single-stim	s636	False
360.515	1.638	1.638	362.153	1	PA_with_intermediate	test	ward_and_allport	82	32.0	1.638	to_hand	poldrack-single-stim	s636	False
362.155	0.1	2.304	364.459	0	PA_with_intermediate	test	ward_and_allport	71	32.0	2.304	to_board	poldrack-single-stim	s636	False
364.465	0.1	0.279	364.744	0	PA_with_intermediate	test	ward_and_allport	82	32.0	0.279	to_hand	poldrack-single-stim	s636	False
364.745	0.1	2.142	366.887	0	PA_with_intermediate	test	ward_and_allport	89	32.0	2.142	to_board	poldrack-single-stim	s636	False
366.896	0.1	0.487	367.383	0	PA_with_intermediate	test	ward_and_allport	71	32.0	0.487	to_hand	poldrack-single-stim	s636	False
367.384	0.1	0.317	367.701	0	PA_with_intermediate	test	ward_and_allport	82	32.0	0.317	to_board	poldrack-single-stim	s636	False
367.711	0.1	0.827	368.538	0	PA_with_intermediate	test	ward_and_allport	89	32.0	0.827	to_hand	poldrack-single-stim	s636	False
368.539	0.1	0.315	368.854	0	PA_with_intermediate	test	ward_and_allport	71	32.0	0.315	to_board	poldrack-single-stim	s636	False
368.868	1.0	2.0	368.867	0	PA_with_intermediate	test	ward_and_allport	-1	32.0	n/a	feedback	poldrack-single-stim	s636	False
370.876	2.91	2.91	373.786	1	PA_with_intermediate	test	ward_and_allport	71	33.0	2.91	to_hand	poldrack-single-stim	s636	False
373.788	0.1	0.437	374.225	0	PA_with_intermediate	test	ward_and_allport	82	33.0	0.437	to_board	poldrack-single-stim	s636	False
374.233	0.1	0.354	374.587	0	PA_with_intermediate	test	ward_and_allport	71	33.0	0.354	to_hand	poldrack-single-stim	s636	False
374.587	0.1	0.382	374.969	0	PA_with_intermediate	test	ward_and_allport	89	33.0	0.382	to_board	poldrack-single-stim	s636	False
374.979	0.1	0.533	375.512	0	PA_with_intermediate	test	ward_and_allport	82	33.0	0.533	to_hand	poldrack-single-stim	s636	False
375.513	0.1	0.577	376.09	0	PA_with_intermediate	test	ward_and_allport	89	33.0	0.577	to_board	poldrack-single-stim	s636	False
376.1	1.0	2.0	376.099	0	PA_with_intermediate	test	ward_and_allport	-1	33.0	n/a	feedback	poldrack-single-stim	s636	False
378.109	3.713	3.713	381.822	1	PA_with_intermediate	test	ward_and_allport	89	34.0	3.713	to_hand	poldrack-single-stim	s636	False
381.823	0.1	0.917	382.74	0	PA_with_intermediate	test	ward_and_allport	82	34.0	0.917	to_board	poldrack-single-stim	s636	False
382.747	0.1	1.021	383.768	0	PA_with_intermediate	test	ward_and_allport	89	34.0	1.021	to_hand	poldrack-single-stim	s636	False
383.77	0.1	0.558	384.328	0	PA_with_intermediate	test	ward_and_allport	71	34.0	0.558	to_board	poldrack-single-stim	s636	False
384.336	0.1	0.96	385.296	0	PA_with_intermediate	test	ward_and_allport	82	34.0	0.96	to_hand	poldrack-single-stim	s636	False
385.297	0.1	0.5	385.797	0	PA_with_intermediate	test	ward_and_allport	71	34.0	0.5	to_board	poldrack-single-stim	s636	False
385.808	1.0	2.408	385.807	0	PA_with_intermediate	test	ward_and_allport	-1	34.0	n/a	feedback	poldrack-single-stim	s636	False
388.226	1.698	1.698	389.924	1	PA_without_intermediate	test	ward_and_allport	89	35.0	1.698	to_hand	poldrack-single-stim	s636	False
389.925	0.1	1.316	391.241	0	PA_without_intermediate	test	ward_and_allport	71	35.0	1.316	to_board	poldrack-single-stim	s636	False
391.248	0.1	0.331	391.579	0	PA_without_intermediate	test	ward_and_allport	89	35.0	0.331	to_hand	poldrack-single-stim	s636	False
391.58	0.1	0.222	391.802	0	PA_without_intermediate	test	ward_and_allport	71	35.0	0.222	to_board	poldrack-single-stim	s636	False
391.811	0.1	0.32	392.131	0	PA_without_intermediate	test	ward_and_allport	89	35.0	0.32	to_hand	poldrack-single-stim	s636	False
392.132	0.1	0.454	392.586	0	PA_without_intermediate	test	ward_and_allport	82	35.0	0.454	to_board	poldrack-single-stim	s636	False
392.595	1.0	2.816	392.594	0	PA_without_intermediate	test	ward_and_allport	-1	35.0	n/a	feedback	poldrack-single-stim	s636	False
395.419	2.96	2.96	398.379	1	PA_with_intermediate	test	ward_and_allport	82	36.0	2.96	to_hand	poldrack-single-stim	s636	False
398.381	0.1	2.183	400.564	0	PA_with_intermediate	test	ward_and_allport	89	36.0	2.183	to_board	poldrack-single-stim	s636	False
400.574	0.1	0.973	401.547	0	PA_with_intermediate	test	ward_and_allport	82	36.0	0.973	to_hand	poldrack-single-stim	s636	False
401.549	0.1	0.402	401.951	0	PA_with_intermediate	test	ward_and_allport	71	36.0	0.402	to_board	poldrack-single-stim	s636	False
401.962	0.1	0.334	402.296	0	PA_with_intermediate	test	ward_and_allport	89	36.0	0.334	to_hand	poldrack-single-stim	s636	False
402.297	0.1	0.547	402.844	0	PA_with_intermediate	test	ward_and_allport	71	36.0	0.547	to_board	poldrack-single-stim	s636	False
402.853	1.0	4.176	402.852	0	PA_with_intermediate	test	ward_and_allport	-1	36.0	n/a	feedback	poldrack-single-stim	s636	False
407.036	2.623	2.623	409.659	1	PA_with_intermediate	test	ward_and_allport	71	37.0	2.623	to_hand	poldrack-single-stim	s636	False
409.66	0.1	0.657	410.317	0	PA_with_intermediate	test	ward_and_allport	89	37.0	0.657	to_board	poldrack-single-stim	s636	False
410.327	0.1	0.323	410.65	0	PA_with_intermediate	test	ward_and_allport	71	37.0	0.323	to_hand	poldrack-single-stim	s636	False
410.651	0.1	0.351	411.002	0	PA_with_intermediate	test	ward_and_allport	82	37.0	0.351	to_board	poldrack-single-stim	s636	False
411.013	0.1	0.26	411.273	0	PA_with_intermediate	test	ward_and_allport	89	37.0	0.26	to_hand	poldrack-single-stim	s636	False
411.274	0.1	0.694	411.968	0	PA_with_intermediate	test	ward_and_allport	82	37.0	0.694	to_board	poldrack-single-stim	s636	False
411.98	1.0	3.36	411.979	0	PA_with_intermediate	test	ward_and_allport	-1	37.0	n/a	feedback	poldrack-single-stim	s636	False
415.348	2.258	2.258	417.606	1	PA_with_intermediate	test	ward_and_allport	82	38.0	2.258	to_hand	poldrack-single-stim	s636	False
417.608	0.1	1.376	418.984	0	PA_with_intermediate	test	ward_and_allport	89	38.0	1.376	to_board	poldrack-single-stim	s636	False
418.992	0.1	0.265	419.257	0	PA_with_intermediate	test	ward_and_allport	82	38.0	0.265	to_hand	poldrack-single-stim	s636	False
419.258	0.1	0.234	419.492	0	PA_with_intermediate	test	ward_and_allport	71	38.0	0.234	to_board	poldrack-single-stim	s636	False
419.504	0.1	0.327	419.831	0	PA_with_intermediate	test	ward_and_allport	89	38.0	0.327	to_hand	poldrack-single-stim	s636	False
419.832	0.1	0.593	420.425	0	PA_with_intermediate	test	ward_and_allport	71	38.0	0.593	to_board	poldrack-single-stim	s636	False
420.435	1.0	2.0	420.434	0	PA_with_intermediate	test	ward_and_allport	-1	38.0	n/a	feedback	poldrack-single-stim	s636	False
422.443	1.633	1.633	424.076	1	PA_without_intermediate	test	ward_and_allport	82	39.0	1.633	to_hand	poldrack-single-stim	s636	False
424.077	0.1	0.544	424.621	0	PA_without_intermediate	test	ward_and_allport	89	39.0	0.544	to_board	poldrack-single-stim	s636	False
424.629	0.1	0.673	425.302	0	PA_without_intermediate	test	ward_and_allport	82	39.0	0.673	to_hand	poldrack-single-stim	s636	False
425.304	0.1	0.368	425.672	0	PA_without_intermediate	test	ward_and_allport	71	39.0	0.368	to_board	poldrack-single-stim	s636	False
425.68	0.1	0.292	425.972	0	PA_without_intermediate	test	ward_and_allport	82	39.0	0.292	to_hand	poldrack-single-stim	s636	False
425.973	0.1	0.23	426.203	0	PA_without_intermediate	test	ward_and_allport	89	39.0	0.23	to_board	poldrack-single-stim	s636	False
426.21	1.0	2.408	426.209	0	PA_without_intermediate	test	ward_and_allport	-1	39.0	n/a	feedback	poldrack-single-stim	s636	False
428.626	1.898	1.898	430.524	1	PA_with_intermediate	test	ward_and_allport	89	40.0	1.898	to_hand	poldrack-single-stim	s636	False
430.525	0.1	0.353	430.878	0	PA_with_intermediate	test	ward_and_allport	71	40.0	0.353	to_board	poldrack-single-stim	s636	False
430.886	0.1	0.313	431.199	0	PA_with_intermediate	test	ward_and_allport	89	40.0	0.313	to_hand	poldrack-single-stim	s636	False
431.2	0.1	0.263	431.463	0	PA_with_intermediate	test	ward_and_allport	71	40.0	0.263	to_board	poldrack-single-stim	s636	False
431.472	0.1	0.894	432.366	0	PA_with_intermediate	test	ward_and_allport	71	40.0	0.894	to_hand	poldrack-single-stim	s636	False
432.368	0.1	0.297	432.665	0	PA_with_intermediate	test	ward_and_allport	82	40.0	0.297	to_board	poldrack-single-stim	s636	False
432.673	0.1	0.401	433.074	0	PA_with_intermediate	test	ward_and_allport	71	40.0	0.401	to_hand	poldrack-single-stim	s636	False
433.075	0.1	0.363	433.438	0	PA_with_intermediate	test	ward_and_allport	82	40.0	0.363	to_board	poldrack-single-stim	s636	False
433.446	1.0	2.816	433.445	0	PA_with_intermediate	test	ward_and_allport	-1	40.0	n/a	feedback	poldrack-single-stim	s636	False
436.269	1.761	1.761	438.03	1	PA_without_intermediate	test	ward_and_allport	71	41.0	1.761	to_hand	poldrack-single-stim	s636	False
438.031	0.1	0.488	438.519	0	PA_without_intermediate	test	ward_and_allport	82	41.0	0.488	to_board	poldrack-single-stim	s636	False
438.526	0.1	0.316	438.842	0	PA_without_intermediate	test	ward_and_allport	71	41.0	0.316	to_hand	poldrack-single-stim	s636	False
438.843	0.1	0.282	439.125	0	PA_without_intermediate	test	ward_and_allport	82	41.0	0.282	to_board	poldrack-single-stim	s636	False
439.135	0.1	0.326	439.461	0	PA_without_intermediate	test	ward_and_allport	71	41.0	0.326	to_hand	poldrack-single-stim	s636	False
439.462	0.1	0.31	439.772	0	PA_without_intermediate	test	ward_and_allport	89	41.0	0.31	to_board	poldrack-single-stim	s636	False
439.782	1.0	3.088	439.781	0	PA_without_intermediate	test	ward_and_allport	-1	41.0	n/a	feedback	poldrack-single-stim	s636	False
442.877	1.415	1.415	444.292	1	PA_without_intermediate	test	ward_and_allport	71	42.0	1.415	to_hand	poldrack-single-stim	s636	False
444.294	0.1	0.439	444.733	0	PA_without_intermediate	test	ward_and_allport	89	42.0	0.439	to_board	poldrack-single-stim	s636	False
444.741	0.1	0.349	445.09	0	PA_without_intermediate	test	ward_and_allport	71	42.0	0.349	to_hand	poldrack-single-stim	s636	False
445.09	0.1	0.263	445.353	0	PA_without_intermediate	test	ward_and_allport	89	42.0	0.263	to_board	poldrack-single-stim	s636	False
445.36	0.1	0.586	445.946	0	PA_without_intermediate	test	ward_and_allport	71	42.0	0.586	to_hand	poldrack-single-stim	s636	False
445.948	0.1	0.274	446.222	0	PA_without_intermediate	test	ward_and_allport	82	42.0	0.274	to_board	poldrack-single-stim	s636	False
446.23	1.0	2.136	446.229	0	PA_without_intermediate	test	ward_and_allport	-1	42.0	n/a	feedback	poldrack-single-stim	s636	False
448.375	1.378	1.378	449.753	1	PA_without_intermediate	test	ward_and_allport	71	43.0	1.378	to_hand	poldrack-single-stim	s636	False
449.754	0.1	0.286	450.04	0	PA_without_intermediate	test	ward_and_allport	82	43.0	0.286	to_board	poldrack-single-stim	s636	False
450.048	0.1	0.436	450.484	0	PA_without_intermediate	test	ward_and_allport	71	43.0	0.436	to_hand	poldrack-single-stim	s636	False
450.485	0.1	0.24	450.725	0	PA_without_intermediate	test	ward_and_allport	89	43.0	0.24	to_board	poldrack-single-stim	s636	False
450.735	0.1	0.27	451.005	0	PA_without_intermediate	test	ward_and_allport	71	43.0	0.27	to_hand	poldrack-single-stim	s636	False
451.006	0.1	0.349	451.355	0	PA_without_intermediate	test	ward_and_allport	82	43.0	0.349	to_board	poldrack-single-stim	s636	False
451.364	1.0	7.168	451.363	0	PA_without_intermediate	test	ward_and_allport	-1	43.0	n/a	feedback	poldrack-single-stim	s636	False
458.54	1.291	1.291	459.831	1	PA_without_intermediate	test	ward_and_allport	89	44.0	1.291	to_hand	poldrack-single-stim	s636	False
459.832	0.1	0.277	460.109	0	PA_without_intermediate	test	ward_and_allport	82	44.0	0.277	to_board	poldrack-single-stim	s636	False
460.119	0.1	0.3	460.419	0	PA_without_intermediate	test	ward_and_allport	89	44.0	0.3	to_hand	poldrack-single-stim	s636	False
460.42	0.1	0.532	460.952	0	PA_without_intermediate	test	ward_and_allport	82	44.0	0.532	to_board	poldrack-single-stim	s636	False
460.962	0.1	0.294	461.256	0	PA_without_intermediate	test	ward_and_allport	89	44.0	0.294	to_hand	poldrack-single-stim	s636	False
461.258	0.1	0.271	461.529	0	PA_without_intermediate	test	ward_and_allport	71	44.0	0.271	to_board	poldrack-single-stim	s636	False
461.541	1.0	2.816	461.54	0	PA_without_intermediate	test	ward_and_allport	-1	44.0	n/a	feedback	poldrack-single-stim	s636	False
469.37	1.321	1.321	470.691	1	PA_with_intermediate	test	ward_and_allport	89	45.0	1.321	to_hand	poldrack-single-stim	s636	False
470.692	0.1	0.812	471.504	0	PA_with_intermediate	test	ward_and_allport	82	45.0	0.812	to_board	poldrack-single-stim	s636	False
471.516	0.1	0.332	471.848	0	PA_with_intermediate	test	ward_and_allport	89	45.0	0.332	to_hand	poldrack-single-stim	s636	False
471.849	0.1	0.297	472.146	0	PA_with_intermediate	test	ward_and_allport	71	45.0	0.297	to_board	poldrack-single-stim	s636	False
472.159	0.1	0.341	472.5	0	PA_with_intermediate	test	ward_and_allport	82	45.0	0.341	to_hand	poldrack-single-stim	s636	False
472.5	0.1	0.248	472.748	0	PA_with_intermediate	test	ward_and_allport	89	45.0	0.248	to_board	poldrack-single-stim	s636	False
472.761	0.1	0.773	473.534	0	PA_with_intermediate	test	ward_and_allport	89	45.0	0.773	to_hand	poldrack-single-stim	s636	False
473.535	0.1	0.223	473.758	0	PA_with_intermediate	test	ward_and_allport	71	45.0	0.223	to_board	poldrack-single-stim	s636	False
473.768	1.0	2.952	473.767	0	PA_with_intermediate	test	ward_and_allport	-1	45.0	n/a	feedback	poldrack-single-stim	s636	False
476.733	2.718	2.718	479.451	1	PA_with_intermediate	test	ward_and_allport	71	46.0	2.718	to_hand	poldrack-single-stim	s636	False
479.452	0.1	1.537	480.989	0	PA_with_intermediate	test	ward_and_allport	89	46.0	1.537	to_board	poldrack-single-stim	s636	False
481.005	0.1	0.267	481.272	0	PA_with_intermediate	test	ward_and_allport	71	46.0	0.267	to_hand	poldrack-single-stim	s636	False
481.273	0.1	0.266	481.539	0	PA_with_intermediate	test	ward_and_allport	82	46.0	0.266	to_board	poldrack-single-stim	s636	False
481.551	0.1	0.27	481.821	0	PA_with_intermediate	test	ward_and_allport	89	46.0	0.27	to_hand	poldrack-single-stim	s636	False
481.822	0.1	0.561	482.383	0	PA_with_intermediate	test	ward_and_allport	71	46.0	0.561	to_board	poldrack-single-stim	s636	False
482.395	1.0	2.136	482.394	0	PA_with_intermediate	test	ward_and_allport	-1	46.0	n/a	feedback	poldrack-single-stim	s636	False
484.545	1.573	1.573	486.118	1	PA_without_intermediate	test	ward_and_allport	71	47.0	1.573	to_hand	poldrack-single-stim	s636	False
486.119	0.1	1.653	487.772	0	PA_without_intermediate	test	ward_and_allport	89	47.0	1.653	to_board	poldrack-single-stim	s636	False
487.783	0.1	0.518	488.301	0	PA_without_intermediate	test	ward_and_allport	71	47.0	0.518	to_hand	poldrack-single-stim	s636	False
488.302	0.1	0.25	488.552	0	PA_without_intermediate	test	ward_and_allport	82	47.0	0.25	to_board	poldrack-single-stim	s636	False
488.561	0.1	0.304	488.865	0	PA_without_intermediate	test	ward_and_allport	71	47.0	0.304	to_hand	poldrack-single-stim	s636	False
488.867	0.1	0.302	489.169	0	PA_without_intermediate	test	ward_and_allport	89	47.0	0.302	to_board	poldrack-single-stim	s636	False
489.178	1.0	2.68	489.177	0	PA_without_intermediate	test	ward_and_allport	-1	47.0	n/a	feedback	poldrack-single-stim	s636	False
