onset	duration	block_duration	movement_onset	planning	condition	exp_stage	experiment_exp_id	key_press	problem_id	response_time	trial_id	trial_type	worker_id	junk
3.014	5.424	5.424	8.438	1	UA_with_intermediate	practice	ward_and_allport	71	0.0	5.424	to_hand	poldrack-single-stim	s585	False
8.44	0.1	1.047	9.487	0	UA_with_intermediate	practice	ward_and_allport	82	0.0	1.047	to_board	poldrack-single-stim	s585	False
9.489	0.1	1.088	10.577	0	UA_with_intermediate	practice	ward_and_allport	71	0.0	1.088	to_hand	poldrack-single-stim	s585	False
10.577	0.1	0.744	11.321	0	UA_with_intermediate	practice	ward_and_allport	89	0.0	0.744	to_board	poldrack-single-stim	s585	False
11.324	0.1	1.334	12.658	0	UA_with_intermediate	practice	ward_and_allport	82	0.0	1.334	to_hand	poldrack-single-stim	s585	False
12.659	0.1	0.574	13.233	0	UA_with_intermediate	practice	ward_and_allport	89	0.0	0.574	to_board	poldrack-single-stim	s585	False
13.238	1.0	2.5	13.237	0	UA_with_intermediate	practice	ward_and_allport	-1	0.0	n/a	feedback	poldrack-single-stim	s585	False
15.741	2.231	2.231	17.972	1	UA_with_intermediate	practice	ward_and_allport	89	1.0	2.231	to_hand	poldrack-single-stim	s585	False
17.974	0.1	0.531	18.505	0	UA_with_intermediate	practice	ward_and_allport	82	1.0	0.531	to_board	poldrack-single-stim	s585	False
18.508	0.1	0.781	19.289	0	UA_with_intermediate	practice	ward_and_allport	71	1.0	0.781	to_hand	poldrack-single-stim	s585	False
19.291	0.1	0.437	19.728	0	UA_with_intermediate	practice	ward_and_allport	89	1.0	0.437	to_board	poldrack-single-stim	s585	False
19.73	0.1	0.807	20.537	0	UA_with_intermediate	practice	ward_and_allport	82	1.0	0.807	to_hand	poldrack-single-stim	s585	False
20.538	0.1	0.432	20.97	0	UA_with_intermediate	practice	ward_and_allport	89	1.0	0.432	to_board	poldrack-single-stim	s585	False
20.973	1.0	2.1	20.972	0	UA_with_intermediate	practice	ward_and_allport	-1	1.0	n/a	feedback	poldrack-single-stim	s585	False
23.075	2.47	2.47	25.545	1	UA_without_intermediate	practice	ward_and_allport	82	2.0	2.47	to_hand	poldrack-single-stim	s585	False
25.547	0.1	0.45	25.997	0	UA_without_intermediate	practice	ward_and_allport	89	2.0	0.45	to_board	poldrack-single-stim	s585	False
26.0	0.1	2.058	28.058	0	UA_without_intermediate	practice	ward_and_allport	71	2.0	2.058	to_hand	poldrack-single-stim	s585	False
28.06	0.1	0.695	28.755	0	UA_without_intermediate	practice	ward_and_allport	82	2.0	0.695	to_board	poldrack-single-stim	s585	False
28.758	0.1	1.456	30.214	0	UA_without_intermediate	practice	ward_and_allport	82	2.0	1.456	to_hand	poldrack-single-stim	s585	False
30.215	0.1	0.466	30.681	0	UA_without_intermediate	practice	ward_and_allport	89	2.0	0.466	to_board	poldrack-single-stim	s585	False
30.683	0.1	0.476	31.159	0	UA_without_intermediate	practice	ward_and_allport	71	2.0	0.476	to_hand	poldrack-single-stim	s585	False
31.16	0.1	0.488	31.648	0	UA_without_intermediate	practice	ward_and_allport	89	2.0	0.488	to_board	poldrack-single-stim	s585	False
31.651	1.0	2.2	31.65	0	UA_without_intermediate	practice	ward_and_allport	-1	2.0	n/a	feedback	poldrack-single-stim	s585	False
33.853	2.575	2.575	36.428	1	UA_without_intermediate	practice	ward_and_allport	71	3.0	2.575	to_hand	poldrack-single-stim	s585	False
36.43	0.1	0.35	36.78	0	UA_without_intermediate	practice	ward_and_allport	89	3.0	0.35	to_board	poldrack-single-stim	s585	False
36.783	0.1	1.434	38.217	0	UA_without_intermediate	practice	ward_and_allport	82	3.0	1.434	to_hand	poldrack-single-stim	s585	False
38.218	0.1	0.428	38.646	0	UA_without_intermediate	practice	ward_and_allport	89	3.0	0.428	to_board	poldrack-single-stim	s585	False
38.647	0.1	0.599	39.246	0	UA_without_intermediate	practice	ward_and_allport	71	3.0	0.599	to_hand	poldrack-single-stim	s585	False
39.247	0.1	0.347	39.594	0	UA_without_intermediate	practice	ward_and_allport	89	3.0	0.347	to_board	poldrack-single-stim	s585	False
39.6	1.0	2.0	39.599	0	UA_without_intermediate	practice	ward_and_allport	-1	3.0	n/a	feedback	poldrack-single-stim	s585	False
43.612	5.074	5.074	48.686	1	PA_with_intermediate	test	ward_and_allport	89	0.0	5.074	to_hand	poldrack-single-stim	s585	False
48.687	0.1	1.319	50.006	0	PA_with_intermediate	test	ward_and_allport	82	0.0	1.319	to_board	poldrack-single-stim	s585	False
50.008	0.1	1.383	51.391	0	PA_with_intermediate	test	ward_and_allport	89	0.0	1.383	to_hand	poldrack-single-stim	s585	False
51.393	0.1	1.106	52.499	0	PA_with_intermediate	test	ward_and_allport	71	0.0	1.106	to_board	poldrack-single-stim	s585	False
52.502	0.1	0.599	53.101	0	PA_with_intermediate	test	ward_and_allport	82	0.0	0.599	to_hand	poldrack-single-stim	s585	False
53.103	0.1	0.379	53.482	0	PA_with_intermediate	test	ward_and_allport	71	0.0	0.379	to_board	poldrack-single-stim	s585	False
53.486	1.0	2.408	53.485	0	PA_with_intermediate	test	ward_and_allport	-1	0.0	n/a	feedback	poldrack-single-stim	s585	False
55.896	4.431	4.431	60.327	1	PA_without_intermediate	test	ward_and_allport	82	1.0	4.431	to_hand	poldrack-single-stim	s585	False
60.328	0.1	0.673	61.001	0	PA_without_intermediate	test	ward_and_allport	71	1.0	0.673	to_board	poldrack-single-stim	s585	False
61.004	0.1	1.473	62.477	0	PA_without_intermediate	test	ward_and_allport	82	1.0	1.473	to_hand	poldrack-single-stim	s585	False
62.478	0.1	2.08	64.558	0	PA_without_intermediate	test	ward_and_allport	71	1.0	2.08	to_board	poldrack-single-stim	s585	False
64.561	0.1	0.548	65.109	0	PA_without_intermediate	test	ward_and_allport	82	1.0	0.548	to_hand	poldrack-single-stim	s585	False
65.11	0.1	0.557	65.667	0	PA_without_intermediate	test	ward_and_allport	89	1.0	0.557	to_board	poldrack-single-stim	s585	False
65.672	1.0	2.68	65.671	0	PA_without_intermediate	test	ward_and_allport	-1	1.0	n/a	feedback	poldrack-single-stim	s585	False
68.355	3.008	3.008	71.363	1	PA_with_intermediate	test	ward_and_allport	71	2.0	3.008	to_hand	poldrack-single-stim	s585	False
71.365	0.1	1.408	72.773	0	PA_with_intermediate	test	ward_and_allport	82	2.0	1.408	to_board	poldrack-single-stim	s585	False
72.776	0.1	0.523	73.299	0	PA_with_intermediate	test	ward_and_allport	71	2.0	0.523	to_hand	poldrack-single-stim	s585	False
73.301	0.1	0.489	73.79	0	PA_with_intermediate	test	ward_and_allport	89	2.0	0.489	to_board	poldrack-single-stim	s585	False
73.793	0.1	0.429	74.222	0	PA_with_intermediate	test	ward_and_allport	82	2.0	0.429	to_hand	poldrack-single-stim	s585	False
74.223	0.1	0.68	74.903	0	PA_with_intermediate	test	ward_and_allport	89	2.0	0.68	to_board	poldrack-single-stim	s585	False
74.909	1.0	4.72	74.908	0	PA_with_intermediate	test	ward_and_allport	-1	2.0	n/a	feedback	poldrack-single-stim	s585	False
79.632	3.377	3.377	83.009	1	PA_without_intermediate	test	ward_and_allport	89	3.0	3.377	to_hand	poldrack-single-stim	s585	False
83.01	0.1	1.128	84.138	0	PA_without_intermediate	test	ward_and_allport	71	3.0	1.128	to_board	poldrack-single-stim	s585	False
84.14	0.1	1.23	85.37	0	PA_without_intermediate	test	ward_and_allport	89	3.0	1.23	to_hand	poldrack-single-stim	s585	False
85.372	0.1	0.414	85.786	0	PA_without_intermediate	test	ward_and_allport	82	3.0	0.414	to_board	poldrack-single-stim	s585	False
85.789	0.1	0.447	86.236	0	PA_without_intermediate	test	ward_and_allport	89	3.0	0.447	to_hand	poldrack-single-stim	s585	False
86.237	0.1	0.58	86.817	0	PA_without_intermediate	test	ward_and_allport	71	3.0	0.58	to_board	poldrack-single-stim	s585	False
86.824	1.0	3.224	86.823	0	PA_without_intermediate	test	ward_and_allport	-1	3.0	n/a	feedback	poldrack-single-stim	s585	False
90.051	2.236	2.236	92.287	1	PA_without_intermediate	test	ward_and_allport	89	4.0	2.236	to_hand	poldrack-single-stim	s585	False
92.288	0.1	1.402	93.69	0	PA_without_intermediate	test	ward_and_allport	82	4.0	1.402	to_board	poldrack-single-stim	s585	False
93.693	0.1	0.61	94.303	0	PA_without_intermediate	test	ward_and_allport	89	4.0	0.61	to_hand	poldrack-single-stim	s585	False
94.304	0.1	0.506	94.81	0	PA_without_intermediate	test	ward_and_allport	82	4.0	0.506	to_board	poldrack-single-stim	s585	False
94.813	0.1	0.849	95.662	0	PA_without_intermediate	test	ward_and_allport	89	4.0	0.849	to_hand	poldrack-single-stim	s585	False
95.663	0.1	0.57	96.233	0	PA_without_intermediate	test	ward_and_allport	71	4.0	0.57	to_board	poldrack-single-stim	s585	False
96.238	1.0	2.272	96.237	0	PA_without_intermediate	test	ward_and_allport	-1	4.0	n/a	feedback	poldrack-single-stim	s585	False
98.513	1.946	1.946	100.459	1	PA_with_intermediate	test	ward_and_allport	71	5.0	1.946	to_hand	poldrack-single-stim	s585	False
100.46	0.1	2.35	102.81	0	PA_with_intermediate	test	ward_and_allport	89	5.0	2.35	to_board	poldrack-single-stim	s585	False
102.814	0.1	1.009	103.823	0	PA_with_intermediate	test	ward_and_allport	71	5.0	1.009	to_hand	poldrack-single-stim	s585	False
103.825	0.1	0.744	104.569	0	PA_with_intermediate	test	ward_and_allport	82	5.0	0.744	to_board	poldrack-single-stim	s585	False
104.573	0.1	1.552	106.125	0	PA_with_intermediate	test	ward_and_allport	89	5.0	1.552	to_hand	poldrack-single-stim	s585	False
106.127	0.1	0.71	106.837	0	PA_with_intermediate	test	ward_and_allport	71	5.0	0.71	to_board	poldrack-single-stim	s585	False
106.846	1.0	3.632	106.845	0	PA_with_intermediate	test	ward_and_allport	-1	5.0	n/a	feedback	poldrack-single-stim	s585	False
110.48	2.255	2.255	112.735	1	PA_without_intermediate	test	ward_and_allport	71	6.0	2.255	to_hand	poldrack-single-stim	s585	False
112.737	0.1	0.747	113.484	0	PA_without_intermediate	test	ward_and_allport	82	6.0	0.747	to_board	poldrack-single-stim	s585	False
113.489	0.1	0.787	114.276	0	PA_without_intermediate	test	ward_and_allport	71	6.0	0.787	to_hand	poldrack-single-stim	s585	False
114.277	0.1	0.484	114.761	0	PA_without_intermediate	test	ward_and_allport	89	6.0	0.484	to_board	poldrack-single-stim	s585	False
114.764	0.1	0.775	115.539	0	PA_without_intermediate	test	ward_and_allport	71	6.0	0.775	to_hand	poldrack-single-stim	s585	False
115.54	0.1	0.581	116.121	0	PA_without_intermediate	test	ward_and_allport	82	6.0	0.581	to_board	poldrack-single-stim	s585	False
116.129	1.0	2.408	116.128	0	PA_without_intermediate	test	ward_and_allport	-1	6.0	n/a	feedback	poldrack-single-stim	s585	False
118.54	1.422	1.422	119.962	1	PA_without_intermediate	test	ward_and_allport	82	7.0	1.422	to_hand	poldrack-single-stim	s585	False
119.963	0.1	0.712	120.675	0	PA_without_intermediate	test	ward_and_allport	89	7.0	0.712	to_board	poldrack-single-stim	s585	False
120.679	0.1	1.282	121.961	0	PA_without_intermediate	test	ward_and_allport	82	7.0	1.282	to_hand	poldrack-single-stim	s585	False
121.962	0.1	0.505	122.467	0	PA_without_intermediate	test	ward_and_allport	89	7.0	0.505	to_board	poldrack-single-stim	s585	False
122.471	0.1	2.265	124.736	0	PA_without_intermediate	test	ward_and_allport	82	7.0	2.265	to_hand	poldrack-single-stim	s585	False
124.737	0.1	0.469	125.206	0	PA_without_intermediate	test	ward_and_allport	71	7.0	0.469	to_board	poldrack-single-stim	s585	False
125.215	1.0	2.0	125.214	0	PA_without_intermediate	test	ward_and_allport	-1	7.0	n/a	feedback	poldrack-single-stim	s585	False
127.219	1.51	1.51	128.729	1	PA_with_intermediate	test	ward_and_allport	82	8.0	1.51	to_hand	poldrack-single-stim	s585	False
128.731	0.1	1.718	130.449	0	PA_with_intermediate	test	ward_and_allport	71	8.0	1.718	to_board	poldrack-single-stim	s585	False
130.454	0.1	1.449	131.903	0	PA_with_intermediate	test	ward_and_allport	82	8.0	1.449	to_hand	poldrack-single-stim	s585	False
131.905	0.1	0.479	132.384	0	PA_with_intermediate	test	ward_and_allport	89	8.0	0.479	to_board	poldrack-single-stim	s585	False
132.389	0.1	1.208	133.597	0	PA_with_intermediate	test	ward_and_allport	71	8.0	1.208	to_hand	poldrack-single-stim	s585	False
133.599	0.1	0.594	134.193	0	PA_with_intermediate	test	ward_and_allport	82	8.0	0.594	to_board	poldrack-single-stim	s585	False
134.2	1.0	2.0	134.199	0	PA_with_intermediate	test	ward_and_allport	-1	8.0	n/a	feedback	poldrack-single-stim	s585	False
136.206	1.311	1.311	137.517	1	PA_with_intermediate	test	ward_and_allport	82	9.0	1.311	to_hand	poldrack-single-stim	s585	False
137.518	0.1	1.212	138.73	0	PA_with_intermediate	test	ward_and_allport	71	9.0	1.212	to_board	poldrack-single-stim	s585	False
138.734	0.1	2.409	141.143	0	PA_with_intermediate	test	ward_and_allport	82	9.0	2.409	to_hand	poldrack-single-stim	s585	False
141.144	0.1	0.415	141.559	0	PA_with_intermediate	test	ward_and_allport	89	9.0	0.415	to_board	poldrack-single-stim	s585	False
141.562	0.1	0.87	142.432	0	PA_with_intermediate	test	ward_and_allport	71	9.0	0.87	to_hand	poldrack-single-stim	s585	False
142.433	0.1	0.466	142.899	0	PA_with_intermediate	test	ward_and_allport	89	9.0	0.466	to_board	poldrack-single-stim	s585	False
142.906	1.0	2.0	142.905	0	PA_with_intermediate	test	ward_and_allport	-1	9.0	n/a	feedback	poldrack-single-stim	s585	False
144.91	2.28	2.28	147.19	1	PA_with_intermediate	test	ward_and_allport	89	10.0	2.28	to_hand	poldrack-single-stim	s585	False
147.191	0.1	1.787	148.978	0	PA_with_intermediate	test	ward_and_allport	71	10.0	1.787	to_board	poldrack-single-stim	s585	False
148.984	0.1	0.515	149.499	0	PA_with_intermediate	test	ward_and_allport	89	10.0	0.515	to_hand	poldrack-single-stim	s585	False
149.5	0.1	0.402	149.902	0	PA_with_intermediate	test	ward_and_allport	82	10.0	0.402	to_board	poldrack-single-stim	s585	False
149.908	0.1	0.827	150.735	0	PA_with_intermediate	test	ward_and_allport	71	10.0	0.827	to_hand	poldrack-single-stim	s585	False
150.736	0.1	0.501	151.237	0	PA_with_intermediate	test	ward_and_allport	89	10.0	0.501	to_board	poldrack-single-stim	s585	False
151.245	1.0	2.408	151.244	0	PA_with_intermediate	test	ward_and_allport	-1	10.0	n/a	feedback	poldrack-single-stim	s585	False
153.658	1.788	1.788	155.446	1	PA_without_intermediate	test	ward_and_allport	89	11.0	1.788	to_hand	poldrack-single-stim	s585	False
155.448	0.1	0.38	155.828	0	PA_without_intermediate	test	ward_and_allport	71	11.0	0.38	to_board	poldrack-single-stim	s585	False
155.832	0.1	0.78	156.612	0	PA_without_intermediate	test	ward_and_allport	89	11.0	0.78	to_hand	poldrack-single-stim	s585	False
156.614	0.1	0.432	157.046	0	PA_without_intermediate	test	ward_and_allport	82	11.0	0.432	to_board	poldrack-single-stim	s585	False
157.051	0.1	0.691	157.742	0	PA_without_intermediate	test	ward_and_allport	89	11.0	0.691	to_hand	poldrack-single-stim	s585	False
157.744	0.1	0.458	158.202	0	PA_without_intermediate	test	ward_and_allport	71	11.0	0.458	to_board	poldrack-single-stim	s585	False
158.21	1.0	2.816	158.209	0	PA_without_intermediate	test	ward_and_allport	-1	11.0	n/a	feedback	poldrack-single-stim	s585	False
161.031	1.881	1.881	162.912	1	PA_with_intermediate	test	ward_and_allport	89	12.0	1.881	to_hand	poldrack-single-stim	s585	False
162.914	0.1	0.797	163.711	0	PA_with_intermediate	test	ward_and_allport	71	12.0	0.797	to_board	poldrack-single-stim	s585	False
163.716	0.1	0.396	164.112	0	PA_with_intermediate	test	ward_and_allport	89	12.0	0.396	to_hand	poldrack-single-stim	s585	False
164.113	0.1	0.42	164.533	0	PA_with_intermediate	test	ward_and_allport	82	12.0	0.42	to_board	poldrack-single-stim	s585	False
164.539	0.1	0.554	165.093	0	PA_with_intermediate	test	ward_and_allport	71	12.0	0.554	to_hand	poldrack-single-stim	s585	False
165.094	0.1	0.327	165.421	0	PA_with_intermediate	test	ward_and_allport	89	12.0	0.327	to_board	poldrack-single-stim	s585	False
165.429	1.0	4.176	165.428	0	PA_with_intermediate	test	ward_and_allport	-1	12.0	n/a	feedback	poldrack-single-stim	s585	False
169.611	1.051	1.051	170.662	1	PA_with_intermediate	test	ward_and_allport	89	13.0	1.051	to_hand	poldrack-single-stim	s585	False
170.663	0.1	1.335	171.998	0	PA_with_intermediate	test	ward_and_allport	71	13.0	1.335	to_board	poldrack-single-stim	s585	False
172.004	0.1	0.385	172.389	0	PA_with_intermediate	test	ward_and_allport	89	13.0	0.385	to_hand	poldrack-single-stim	s585	False
172.391	0.1	0.468	172.859	0	PA_with_intermediate	test	ward_and_allport	82	13.0	0.468	to_board	poldrack-single-stim	s585	False
172.863	0.1	0.831	173.694	0	PA_with_intermediate	test	ward_and_allport	71	13.0	0.831	to_hand	poldrack-single-stim	s585	False
173.696	0.1	0.678	174.374	0	PA_with_intermediate	test	ward_and_allport	82	13.0	0.678	to_board	poldrack-single-stim	s585	False
174.379	1.0	3.36	174.378	0	PA_with_intermediate	test	ward_and_allport	-1	13.0	n/a	feedback	poldrack-single-stim	s585	False
177.744	0.961	0.961	178.705	1	PA_with_intermediate	test	ward_and_allport	89	14.0	0.961	to_hand	poldrack-single-stim	s585	False
178.707	0.1	0.654	179.361	0	PA_with_intermediate	test	ward_and_allport	71	14.0	0.654	to_board	poldrack-single-stim	s585	False
179.367	0.1	0.356	179.723	0	PA_with_intermediate	test	ward_and_allport	89	14.0	0.356	to_hand	poldrack-single-stim	s585	False
179.724	0.1	1.493	181.217	0	PA_with_intermediate	test	ward_and_allport	89	14.0	1.493	to_board	poldrack-single-stim	s585	False
181.222	0.1	0.637	181.859	0	PA_with_intermediate	test	ward_and_allport	89	14.0	0.637	to_hand	poldrack-single-stim	s585	False
181.86	0.1	1.205	183.065	0	PA_with_intermediate	test	ward_and_allport	89	14.0	1.205	to_board	poldrack-single-stim	s585	False
183.07	0.1	0.501	183.571	0	PA_with_intermediate	test	ward_and_allport	71	14.0	0.501	to_hand	poldrack-single-stim	s585	False
183.572	0.1	0.791	184.363	0	PA_with_intermediate	test	ward_and_allport	82	14.0	0.791	to_board	poldrack-single-stim	s585	False
184.369	0.1	0.566	184.935	0	PA_with_intermediate	test	ward_and_allport	89	14.0	0.566	to_hand	poldrack-single-stim	s585	False
184.936	0.1	0.438	185.374	0	PA_with_intermediate	test	ward_and_allport	71	14.0	0.438	to_board	poldrack-single-stim	s585	False
185.379	0.1	0.426	185.805	0	PA_with_intermediate	test	ward_and_allport	82	14.0	0.426	to_hand	poldrack-single-stim	s585	False
185.807	0.1	0.434	186.241	0	PA_with_intermediate	test	ward_and_allport	89	14.0	0.434	to_board	poldrack-single-stim	s585	False
186.247	1.0	2.0	186.246	0	PA_with_intermediate	test	ward_and_allport	-1	14.0	n/a	feedback	poldrack-single-stim	s585	False
193.253	2.715	2.715	195.968	1	PA_without_intermediate	test	ward_and_allport	82	15.0	2.715	to_hand	poldrack-single-stim	s585	False
195.969	0.1	0.363	196.332	0	PA_without_intermediate	test	ward_and_allport	89	15.0	0.363	to_board	poldrack-single-stim	s585	False
196.339	0.1	2.746	199.085	0	PA_without_intermediate	test	ward_and_allport	82	15.0	2.746	to_hand	poldrack-single-stim	s585	False
199.085	0.1	0.47	199.555	0	PA_without_intermediate	test	ward_and_allport	71	15.0	0.47	to_board	poldrack-single-stim	s585	False
199.561	0.1	1.251	200.812	0	PA_without_intermediate	test	ward_and_allport	82	15.0	1.251	to_hand	poldrack-single-stim	s585	False
200.812	0.1	0.414	201.226	0	PA_without_intermediate	test	ward_and_allport	89	15.0	0.414	to_board	poldrack-single-stim	s585	False
201.236	1.0	2.408	201.235	0	PA_without_intermediate	test	ward_and_allport	-1	15.0	n/a	feedback	poldrack-single-stim	s585	False
203.65	2.144	2.144	205.794	1	PA_with_intermediate	test	ward_and_allport	82	16.0	2.144	to_hand	poldrack-single-stim	s585	False
205.795	0.1	1.098	206.893	0	PA_with_intermediate	test	ward_and_allport	89	16.0	1.098	to_board	poldrack-single-stim	s585	False
206.9	0.1	1.367	208.267	0	PA_with_intermediate	test	ward_and_allport	82	16.0	1.367	to_hand	poldrack-single-stim	s585	False
208.268	0.1	0.458	208.726	0	PA_with_intermediate	test	ward_and_allport	71	16.0	0.458	to_board	poldrack-single-stim	s585	False
208.732	0.1	0.524	209.256	0	PA_with_intermediate	test	ward_and_allport	89	16.0	0.524	to_hand	poldrack-single-stim	s585	False
209.257	0.1	0.524	209.781	0	PA_with_intermediate	test	ward_and_allport	71	16.0	0.524	to_board	poldrack-single-stim	s585	False
209.788	1.0	2.816	209.787	0	PA_with_intermediate	test	ward_and_allport	-1	16.0	n/a	feedback	poldrack-single-stim	s585	False
212.61	1.276	1.276	213.886	1	PA_without_intermediate	test	ward_and_allport	71	17.0	1.276	to_hand	poldrack-single-stim	s585	False
213.886	0.1	0.713	214.599	0	PA_without_intermediate	test	ward_and_allport	89	17.0	0.713	to_board	poldrack-single-stim	s585	False
214.606	0.1	1.146	215.752	0	PA_without_intermediate	test	ward_and_allport	71	17.0	1.146	to_hand	poldrack-single-stim	s585	False
215.754	0.1	0.463	216.217	0	PA_without_intermediate	test	ward_and_allport	82	17.0	0.463	to_board	poldrack-single-stim	s585	False
216.223	0.1	0.641	216.864	0	PA_without_intermediate	test	ward_and_allport	71	17.0	0.641	to_hand	poldrack-single-stim	s585	False
216.866	0.1	0.372	217.238	0	PA_without_intermediate	test	ward_and_allport	89	17.0	0.372	to_board	poldrack-single-stim	s585	False
217.245	1.0	3.088	217.244	0	PA_without_intermediate	test	ward_and_allport	-1	17.0	n/a	feedback	poldrack-single-stim	s585	False
220.338	1.066	1.066	221.404	1	PA_without_intermediate	test	ward_and_allport	71	18.0	1.066	to_hand	poldrack-single-stim	s585	False
221.405	0.1	0.666	222.071	0	PA_without_intermediate	test	ward_and_allport	89	18.0	0.666	to_board	poldrack-single-stim	s585	False
222.078	0.1	0.517	222.595	0	PA_without_intermediate	test	ward_and_allport	71	18.0	0.517	to_hand	poldrack-single-stim	s585	False
222.596	0.1	0.351	222.947	0	PA_without_intermediate	test	ward_and_allport	89	18.0	0.351	to_board	poldrack-single-stim	s585	False
222.952	0.1	0.971	223.923	0	PA_without_intermediate	test	ward_and_allport	71	18.0	0.971	to_hand	poldrack-single-stim	s585	False
223.925	0.1	0.327	224.252	0	PA_without_intermediate	test	ward_and_allport	82	18.0	0.327	to_board	poldrack-single-stim	s585	False
224.261	1.0	2.136	224.26	0	PA_without_intermediate	test	ward_and_allport	-1	18.0	n/a	feedback	poldrack-single-stim	s585	False
226.403	1.136	1.136	227.539	1	PA_without_intermediate	test	ward_and_allport	82	19.0	1.136	to_hand	poldrack-single-stim	s585	False
227.54	0.1	0.516	228.056	0	PA_without_intermediate	test	ward_and_allport	71	19.0	0.516	to_board	poldrack-single-stim	s585	False
228.062	0.1	1.432	229.494	0	PA_without_intermediate	test	ward_and_allport	82	19.0	1.432	to_hand	poldrack-single-stim	s585	False
229.495	0.1	0.542	230.037	0	PA_without_intermediate	test	ward_and_allport	89	19.0	0.542	to_board	poldrack-single-stim	s585	False
230.044	0.1	0.947	230.991	0	PA_without_intermediate	test	ward_and_allport	82	19.0	0.947	to_hand	poldrack-single-stim	s585	False
230.992	0.1	0.661	231.653	0	PA_without_intermediate	test	ward_and_allport	71	19.0	0.661	to_board	poldrack-single-stim	s585	False
231.663	1.0	7.168	231.662	0	PA_without_intermediate	test	ward_and_allport	-1	19.0	n/a	feedback	poldrack-single-stim	s585	False
238.837	1.473	1.473	240.31	1	PA_without_intermediate	test	ward_and_allport	71	20.0	1.473	to_hand	poldrack-single-stim	s585	False
240.311	0.1	0.939	241.25	0	PA_without_intermediate	test	ward_and_allport	82	20.0	0.939	to_board	poldrack-single-stim	s585	False
241.257	0.1	0.579	241.836	0	PA_without_intermediate	test	ward_and_allport	71	20.0	0.579	to_hand	poldrack-single-stim	s585	False
241.838	0.1	0.632	242.47	0	PA_without_intermediate	test	ward_and_allport	89	20.0	0.632	to_board	poldrack-single-stim	s585	False
242.478	0.1	0.373	242.851	0	PA_without_intermediate	test	ward_and_allport	71	20.0	0.373	to_hand	poldrack-single-stim	s585	False
242.852	0.1	0.387	243.239	0	PA_without_intermediate	test	ward_and_allport	82	20.0	0.387	to_board	poldrack-single-stim	s585	False
243.247	1.0	2.816	243.246	0	PA_without_intermediate	test	ward_and_allport	-1	20.0	n/a	feedback	poldrack-single-stim	s585	False
246.069	0.939	0.939	247.008	1	PA_with_intermediate	test	ward_and_allport	82	21.0	0.939	to_hand	poldrack-single-stim	s585	False
247.01	0.1	0.926	247.936	0	PA_with_intermediate	test	ward_and_allport	71	21.0	0.926	to_board	poldrack-single-stim	s585	False
247.942	0.1	1.22	249.162	0	PA_with_intermediate	test	ward_and_allport	71	21.0	1.22	to_hand	poldrack-single-stim	s585	False
249.163	0.1	0.534	249.697	0	PA_with_intermediate	test	ward_and_allport	89	21.0	0.534	to_board	poldrack-single-stim	s585	False
249.704	0.1	0.855	250.559	0	PA_with_intermediate	test	ward_and_allport	82	21.0	0.855	to_hand	poldrack-single-stim	s585	False
250.56	0.1	0.42	250.98	0	PA_with_intermediate	test	ward_and_allport	71	21.0	0.42	to_board	poldrack-single-stim	s585	False
250.987	0.1	0.741	251.728	0	PA_with_intermediate	test	ward_and_allport	89	21.0	0.741	to_hand	poldrack-single-stim	s585	False
251.729	0.1	0.406	252.135	0	PA_with_intermediate	test	ward_and_allport	82	21.0	0.406	to_board	poldrack-single-stim	s585	False
252.145	1.0	2.952	252.144	0	PA_with_intermediate	test	ward_and_allport	-1	21.0	n/a	feedback	poldrack-single-stim	s585	False
255.104	1.926	1.926	257.03	1	PA_with_intermediate	test	ward_and_allport	89	22.0	1.926	to_hand	poldrack-single-stim	s585	False
257.032	0.1	0.371	257.403	0	PA_with_intermediate	test	ward_and_allport	71	22.0	0.371	to_board	poldrack-single-stim	s585	False
257.412	0.1	0.318	257.73	0	PA_with_intermediate	test	ward_and_allport	89	22.0	0.318	to_hand	poldrack-single-stim	s585	False
257.731	0.1	0.308	258.039	0	PA_with_intermediate	test	ward_and_allport	82	22.0	0.308	to_board	poldrack-single-stim	s585	False
258.048	0.1	0.473	258.521	0	PA_with_intermediate	test	ward_and_allport	71	22.0	0.473	to_hand	poldrack-single-stim	s585	False
258.522	0.1	0.407	258.929	0	PA_with_intermediate	test	ward_and_allport	82	22.0	0.407	to_board	poldrack-single-stim	s585	False
258.939	1.0	2.136	258.938	0	PA_with_intermediate	test	ward_and_allport	-1	22.0	n/a	feedback	poldrack-single-stim	s585	False
261.083	2.328	2.328	263.411	1	PA_without_intermediate	test	ward_and_allport	82	23.0	2.328	to_hand	poldrack-single-stim	s585	False
263.413	0.1	0.328	263.741	0	PA_without_intermediate	test	ward_and_allport	71	23.0	0.328	to_board	poldrack-single-stim	s585	False
263.749	0.1	1.941	265.69	0	PA_without_intermediate	test	ward_and_allport	82	23.0	1.941	to_hand	poldrack-single-stim	s585	False
265.691	0.1	0.381	266.072	0	PA_without_intermediate	test	ward_and_allport	89	23.0	0.381	to_board	poldrack-single-stim	s585	False
266.082	0.1	0.64	266.722	0	PA_without_intermediate	test	ward_and_allport	82	23.0	0.64	to_hand	poldrack-single-stim	s585	False
266.723	0.1	0.959	267.682	0	PA_without_intermediate	test	ward_and_allport	71	23.0	0.959	to_board	poldrack-single-stim	s585	False
267.691	1.0	2.68	267.69	0	PA_without_intermediate	test	ward_and_allport	-1	23.0	n/a	feedback	poldrack-single-stim	s585	False
270.38	1.254	1.254	271.634	1	PA_without_intermediate	test	ward_and_allport	89	24.0	1.254	to_hand	poldrack-single-stim	s585	False
271.635	0.1	0.338	271.973	0	PA_without_intermediate	test	ward_and_allport	82	24.0	0.338	to_board	poldrack-single-stim	s585	False
271.98	0.1	0.782	272.762	0	PA_without_intermediate	test	ward_and_allport	89	24.0	0.782	to_hand	poldrack-single-stim	s585	False
272.763	0.1	0.399	273.162	0	PA_without_intermediate	test	ward_and_allport	71	24.0	0.399	to_board	poldrack-single-stim	s585	False
273.171	0.1	0.618	273.789	0	PA_without_intermediate	test	ward_and_allport	89	24.0	0.618	to_hand	poldrack-single-stim	s585	False
273.791	0.1	0.256	274.047	0	PA_without_intermediate	test	ward_and_allport	82	24.0	0.256	to_board	poldrack-single-stim	s585	False
274.057	1.0	3.088	274.056	0	PA_without_intermediate	test	ward_and_allport	-1	24.0	n/a	feedback	poldrack-single-stim	s585	False
277.154	0.807	0.807	277.961	1	PA_with_intermediate	test	ward_and_allport	71	25.0	0.807	to_hand	poldrack-single-stim	s585	False
277.962	0.1	1.325	279.287	0	PA_with_intermediate	test	ward_and_allport	82	25.0	1.325	to_board	poldrack-single-stim	s585	False
279.296	0.1	0.438	279.734	0	PA_with_intermediate	test	ward_and_allport	71	25.0	0.438	to_hand	poldrack-single-stim	s585	False
279.736	0.1	0.372	280.108	0	PA_with_intermediate	test	ward_and_allport	89	25.0	0.372	to_board	poldrack-single-stim	s585	False
280.117	0.1	0.38	280.497	0	PA_with_intermediate	test	ward_and_allport	82	25.0	0.38	to_hand	poldrack-single-stim	s585	False
280.499	0.1	0.436	280.935	0	PA_with_intermediate	test	ward_and_allport	89	25.0	0.436	to_board	poldrack-single-stim	s585	False
280.948	1.0	2.0	280.947	0	PA_with_intermediate	test	ward_and_allport	-1	25.0	n/a	feedback	poldrack-single-stim	s585	False
282.958	1.921	1.921	284.879	1	PA_without_intermediate	test	ward_and_allport	82	26.0	1.921	to_hand	poldrack-single-stim	s585	False
284.88	0.1	0.347	285.227	0	PA_without_intermediate	test	ward_and_allport	89	26.0	0.347	to_board	poldrack-single-stim	s585	False
285.236	0.1	0.916	286.152	0	PA_without_intermediate	test	ward_and_allport	89	26.0	0.916	to_hand	poldrack-single-stim	s585	False
286.153	0.1	0.59	286.743	0	PA_without_intermediate	test	ward_and_allport	71	26.0	0.59	to_board	poldrack-single-stim	s585	False
286.751	0.1	1.813	288.564	0	PA_without_intermediate	test	ward_and_allport	82	26.0	1.813	to_hand	poldrack-single-stim	s585	False
288.565	0.1	0.475	289.04	0	PA_without_intermediate	test	ward_and_allport	71	26.0	0.475	to_board	poldrack-single-stim	s585	False
289.048	0.1	1.177	290.225	0	PA_without_intermediate	test	ward_and_allport	82	26.0	1.177	to_hand	poldrack-single-stim	s585	False
290.226	0.1	0.333	290.559	0	PA_without_intermediate	test	ward_and_allport	89	26.0	0.333	to_board	poldrack-single-stim	s585	False
290.571	1.0	2.0	290.57	0	PA_without_intermediate	test	ward_and_allport	-1	26.0	n/a	feedback	poldrack-single-stim	s585	False
292.582	1.527	1.527	294.109	1	PA_without_intermediate	test	ward_and_allport	71	27.0	1.527	to_hand	poldrack-single-stim	s585	False
294.11	0.1	0.338	294.448	0	PA_without_intermediate	test	ward_and_allport	89	27.0	0.338	to_board	poldrack-single-stim	s585	False
294.457	0.1	0.725	295.182	0	PA_without_intermediate	test	ward_and_allport	71	27.0	0.725	to_hand	poldrack-single-stim	s585	False
295.184	0.1	0.297	295.481	0	PA_without_intermediate	test	ward_and_allport	89	27.0	0.297	to_board	poldrack-single-stim	s585	False
295.491	0.1	0.794	296.285	0	PA_without_intermediate	test	ward_and_allport	71	27.0	0.794	to_hand	poldrack-single-stim	s585	False
296.287	0.1	0.33	296.617	0	PA_without_intermediate	test	ward_and_allport	82	27.0	0.33	to_board	poldrack-single-stim	s585	False
296.628	1.0	2.0	296.627	0	PA_without_intermediate	test	ward_and_allport	-1	27.0	n/a	feedback	poldrack-single-stim	s585	False
298.638	1.559	1.559	300.197	1	PA_with_intermediate	test	ward_and_allport	82	28.0	1.559	to_hand	poldrack-single-stim	s585	False
300.197	0.1	1.488	301.685	0	PA_with_intermediate	test	ward_and_allport	71	28.0	1.488	to_board	poldrack-single-stim	s585	False
301.693	0.1	0.36	302.053	0	PA_with_intermediate	test	ward_and_allport	82	28.0	0.36	to_hand	poldrack-single-stim	s585	False
302.054	0.1	0.308	302.362	0	PA_with_intermediate	test	ward_and_allport	89	28.0	0.308	to_board	poldrack-single-stim	s585	False
302.373	0.1	0.622	302.995	0	PA_with_intermediate	test	ward_and_allport	71	28.0	0.622	to_hand	poldrack-single-stim	s585	False
302.996	0.1	0.386	303.382	0	PA_with_intermediate	test	ward_and_allport	82	28.0	0.386	to_board	poldrack-single-stim	s585	False
303.395	1.0	2.544	303.394	0	PA_with_intermediate	test	ward_and_allport	-1	28.0	n/a	feedback	poldrack-single-stim	s585	False
305.947	1.782	1.782	307.729	1	PA_without_intermediate	test	ward_and_allport	71	29.0	1.782	to_hand	poldrack-single-stim	s585	False
307.731	0.1	0.327	308.058	0	PA_without_intermediate	test	ward_and_allport	89	29.0	0.327	to_board	poldrack-single-stim	s585	False
308.067	0.1	0.871	308.938	0	PA_without_intermediate	test	ward_and_allport	71	29.0	0.871	to_hand	poldrack-single-stim	s585	False
308.938	0.1	0.263	309.201	0	PA_without_intermediate	test	ward_and_allport	82	29.0	0.263	to_board	poldrack-single-stim	s585	False
309.21	0.1	0.436	309.646	0	PA_without_intermediate	test	ward_and_allport	71	29.0	0.436	to_hand	poldrack-single-stim	s585	False
309.647	0.1	0.233	309.88	0	PA_without_intermediate	test	ward_and_allport	89	29.0	0.233	to_board	poldrack-single-stim	s585	False
309.893	1.0	2.272	309.892	0	PA_without_intermediate	test	ward_and_allport	-1	29.0	n/a	feedback	poldrack-single-stim	s585	False
317.176	1.363	1.363	318.539	1	PA_with_intermediate	test	ward_and_allport	71	30.0	1.363	to_hand	poldrack-single-stim	s585	False
318.54	0.1	1.39	319.93	0	PA_with_intermediate	test	ward_and_allport	82	30.0	1.39	to_board	poldrack-single-stim	s585	False
319.941	0.1	0.282	320.223	0	PA_with_intermediate	test	ward_and_allport	71	30.0	0.282	to_hand	poldrack-single-stim	s585	False
320.224	0.1	0.24	320.464	0	PA_with_intermediate	test	ward_and_allport	89	30.0	0.24	to_board	poldrack-single-stim	s585	False
320.476	0.1	0.932	321.408	0	PA_with_intermediate	test	ward_and_allport	82	30.0	0.932	to_hand	poldrack-single-stim	s585	False
321.41	0.1	0.273	321.683	0	PA_with_intermediate	test	ward_and_allport	71	30.0	0.273	to_board	poldrack-single-stim	s585	False
321.695	1.0	4.04	321.694	0	PA_with_intermediate	test	ward_and_allport	-1	30.0	n/a	feedback	poldrack-single-stim	s585	False
325.744	1.562	1.562	327.306	1	PA_with_intermediate	test	ward_and_allport	71	31.0	1.562	to_hand	poldrack-single-stim	s585	False
327.308	0.1	1.041	328.349	0	PA_with_intermediate	test	ward_and_allport	89	31.0	1.041	to_board	poldrack-single-stim	s585	False
328.362	0.1	0.359	328.721	0	PA_with_intermediate	test	ward_and_allport	71	31.0	0.359	to_hand	poldrack-single-stim	s585	False
328.722	0.1	0.349	329.071	0	PA_with_intermediate	test	ward_and_allport	82	31.0	0.349	to_board	poldrack-single-stim	s585	False
329.082	0.1	0.433	329.515	0	PA_with_intermediate	test	ward_and_allport	89	31.0	0.433	to_hand	poldrack-single-stim	s585	False
329.517	0.1	0.502	330.019	0	PA_with_intermediate	test	ward_and_allport	71	31.0	0.502	to_board	poldrack-single-stim	s585	False
330.031	1.0	2.272	330.03	0	PA_with_intermediate	test	ward_and_allport	-1	31.0	n/a	feedback	poldrack-single-stim	s585	False
332.314	2.016	2.016	334.33	1	PA_with_intermediate	test	ward_and_allport	89	32.0	2.016	to_hand	poldrack-single-stim	s585	False
334.331	0.1	0.754	335.085	0	PA_with_intermediate	test	ward_and_allport	82	32.0	0.754	to_board	poldrack-single-stim	s585	False
335.092	0.1	0.789	335.881	0	PA_with_intermediate	test	ward_and_allport	89	32.0	0.789	to_hand	poldrack-single-stim	s585	False
335.883	0.1	0.521	336.404	0	PA_with_intermediate	test	ward_and_allport	71	32.0	0.521	to_board	poldrack-single-stim	s585	False
336.412	0.1	0.447	336.859	0	PA_with_intermediate	test	ward_and_allport	82	32.0	0.447	to_hand	poldrack-single-stim	s585	False
336.86	0.1	0.396	337.256	0	PA_with_intermediate	test	ward_and_allport	89	32.0	0.396	to_board	poldrack-single-stim	s585	False
337.273	1.0	2.136	337.272	0	PA_with_intermediate	test	ward_and_allport	-1	32.0	n/a	feedback	poldrack-single-stim	s585	False
339.42	2.069	2.069	341.489	1	PA_with_intermediate	test	ward_and_allport	71	33.0	2.069	to_hand	poldrack-single-stim	s585	False
341.49	0.1	1.556	343.046	0	PA_with_intermediate	test	ward_and_allport	82	33.0	1.556	to_board	poldrack-single-stim	s585	False
343.057	0.1	0.363	343.42	0	PA_with_intermediate	test	ward_and_allport	71	33.0	0.363	to_hand	poldrack-single-stim	s585	False
343.422	0.1	0.31	343.732	0	PA_with_intermediate	test	ward_and_allport	89	33.0	0.31	to_board	poldrack-single-stim	s585	False
343.744	0.1	1.165	344.909	0	PA_with_intermediate	test	ward_and_allport	82	33.0	1.165	to_hand	poldrack-single-stim	s585	False
344.91	0.1	0.376	345.286	0	PA_with_intermediate	test	ward_and_allport	71	33.0	0.376	to_board	poldrack-single-stim	s585	False
345.298	1.0	2.0	345.297	0	PA_with_intermediate	test	ward_and_allport	-1	33.0	n/a	feedback	poldrack-single-stim	s585	False
347.307	1.774	1.774	349.081	1	PA_with_intermediate	test	ward_and_allport	71	34.0	1.774	to_hand	poldrack-single-stim	s585	False
349.082	0.1	0.665	349.747	0	PA_with_intermediate	test	ward_and_allport	89	34.0	0.665	to_board	poldrack-single-stim	s585	False
349.756	0.1	0.337	350.093	0	PA_with_intermediate	test	ward_and_allport	71	34.0	0.337	to_hand	poldrack-single-stim	s585	False
350.095	0.1	0.325	350.42	0	PA_with_intermediate	test	ward_and_allport	82	34.0	0.325	to_board	poldrack-single-stim	s585	False
350.428	0.1	0.352	350.78	0	PA_with_intermediate	test	ward_and_allport	89	34.0	0.352	to_hand	poldrack-single-stim	s585	False
350.781	0.1	0.33	351.111	0	PA_with_intermediate	test	ward_and_allport	82	34.0	0.33	to_board	poldrack-single-stim	s585	False
351.121	1.0	2.0	351.12	0	PA_with_intermediate	test	ward_and_allport	-1	34.0	n/a	feedback	poldrack-single-stim	s585	False
353.129	1.318	1.318	354.447	1	PA_without_intermediate	test	ward_and_allport	82	35.0	1.318	to_hand	poldrack-single-stim	s585	False
354.449	0.1	0.415	354.864	0	PA_without_intermediate	test	ward_and_allport	89	35.0	0.415	to_board	poldrack-single-stim	s585	False
354.871	0.1	2.832	357.703	0	PA_without_intermediate	test	ward_and_allport	82	35.0	2.832	to_hand	poldrack-single-stim	s585	False
357.704	0.1	0.457	358.161	0	PA_without_intermediate	test	ward_and_allport	71	35.0	0.457	to_board	poldrack-single-stim	s585	False
358.168	0.1	0.777	358.945	0	PA_without_intermediate	test	ward_and_allport	82	35.0	0.777	to_hand	poldrack-single-stim	s585	False
358.946	0.1	0.373	359.319	0	PA_without_intermediate	test	ward_and_allport	89	35.0	0.373	to_board	poldrack-single-stim	s585	False
359.332	1.0	2.408	359.331	0	PA_without_intermediate	test	ward_and_allport	-1	35.0	n/a	feedback	poldrack-single-stim	s585	False
361.752	1.624	1.624	363.376	1	PA_with_intermediate	test	ward_and_allport	82	36.0	1.624	to_hand	poldrack-single-stim	s585	False
363.377	0.1	1.111	364.488	0	PA_with_intermediate	test	ward_and_allport	89	36.0	1.111	to_board	poldrack-single-stim	s585	False
364.499	0.1	0.709	365.208	0	PA_with_intermediate	test	ward_and_allport	82	36.0	0.709	to_hand	poldrack-single-stim	s585	False
365.208	0.1	0.491	365.699	0	PA_with_intermediate	test	ward_and_allport	71	36.0	0.491	to_board	poldrack-single-stim	s585	False
365.707	0.1	0.475	366.182	0	PA_with_intermediate	test	ward_and_allport	89	36.0	0.475	to_hand	poldrack-single-stim	s585	False
366.185	0.1	0.322	366.507	0	PA_with_intermediate	test	ward_and_allport	82	36.0	0.322	to_board	poldrack-single-stim	s585	False
366.518	1.0	3.768	366.517	0	PA_with_intermediate	test	ward_and_allport	-1	36.0	n/a	feedback	poldrack-single-stim	s585	False
370.294	1.217	1.217	371.511	1	PA_with_intermediate	test	ward_and_allport	82	37.0	1.217	to_hand	poldrack-single-stim	s585	False
371.513	0.1	1.908	373.421	0	PA_with_intermediate	test	ward_and_allport	89	37.0	1.908	to_board	poldrack-single-stim	s585	False
373.432	0.1	0.462	373.894	0	PA_with_intermediate	test	ward_and_allport	82	37.0	0.462	to_hand	poldrack-single-stim	s585	False
373.895	0.1	0.678	374.573	0	PA_with_intermediate	test	ward_and_allport	71	37.0	0.678	to_board	poldrack-single-stim	s585	False
374.586	0.1	0.382	374.968	0	PA_with_intermediate	test	ward_and_allport	89	37.0	0.382	to_hand	poldrack-single-stim	s585	False
374.97	0.1	0.367	375.337	0	PA_with_intermediate	test	ward_and_allport	71	37.0	0.367	to_board	poldrack-single-stim	s585	False
375.348	1.0	2.68	375.347	0	PA_with_intermediate	test	ward_and_allport	-1	37.0	n/a	feedback	poldrack-single-stim	s585	False
378.037	1.449	1.449	379.486	1	PA_without_intermediate	test	ward_and_allport	89	38.0	1.449	to_hand	poldrack-single-stim	s585	False
379.488	0.1	0.427	379.915	0	PA_without_intermediate	test	ward_and_allport	82	38.0	0.427	to_board	poldrack-single-stim	s585	False
379.924	0.1	0.776	380.7	0	PA_without_intermediate	test	ward_and_allport	89	38.0	0.776	to_hand	poldrack-single-stim	s585	False
380.702	0.1	0.857	381.559	0	PA_without_intermediate	test	ward_and_allport	71	38.0	0.857	to_board	poldrack-single-stim	s585	False
381.568	0.1	0.36	381.928	0	PA_without_intermediate	test	ward_and_allport	89	38.0	0.36	to_hand	poldrack-single-stim	s585	False
381.93	0.1	0.248	382.178	0	PA_without_intermediate	test	ward_and_allport	82	38.0	0.248	to_board	poldrack-single-stim	s585	False
382.192	1.0	3.224	382.191	0	PA_without_intermediate	test	ward_and_allport	-1	38.0	n/a	feedback	poldrack-single-stim	s585	False
385.427	1.02	1.02	386.447	1	PA_without_intermediate	test	ward_and_allport	89	39.0	1.02	to_hand	poldrack-single-stim	s585	False
386.449	0.1	0.354	386.803	0	PA_without_intermediate	test	ward_and_allport	71	39.0	0.354	to_board	poldrack-single-stim	s585	False
386.814	0.1	0.484	387.298	0	PA_without_intermediate	test	ward_and_allport	89	39.0	0.484	to_hand	poldrack-single-stim	s585	False
387.299	0.1	0.278	387.577	0	PA_without_intermediate	test	ward_and_allport	71	39.0	0.278	to_board	poldrack-single-stim	s585	False
387.586	0.1	0.449	388.035	0	PA_without_intermediate	test	ward_and_allport	89	39.0	0.449	to_hand	poldrack-single-stim	s585	False
388.035	0.1	0.486	388.521	0	PA_without_intermediate	test	ward_and_allport	82	39.0	0.486	to_board	poldrack-single-stim	s585	False
388.532	1.0	3.36	388.531	0	PA_without_intermediate	test	ward_and_allport	-1	39.0	n/a	feedback	poldrack-single-stim	s585	False
391.904	3.469	3.469	395.373	1	PA_without_intermediate	test	ward_and_allport	71	40.0	3.469	to_hand	poldrack-single-stim	s585	False
395.374	0.1	0.357	395.731	0	PA_without_intermediate	test	ward_and_allport	82	40.0	0.357	to_board	poldrack-single-stim	s585	False
395.74	0.1	1.555	397.295	0	PA_without_intermediate	test	ward_and_allport	71	40.0	1.555	to_hand	poldrack-single-stim	s585	False
397.296	0.1	0.397	397.693	0	PA_without_intermediate	test	ward_and_allport	82	40.0	0.397	to_board	poldrack-single-stim	s585	False
397.703	0.1	0.663	398.366	0	PA_without_intermediate	test	ward_and_allport	71	40.0	0.663	to_hand	poldrack-single-stim	s585	False
398.367	0.1	0.327	398.694	0	PA_without_intermediate	test	ward_and_allport	89	40.0	0.327	to_board	poldrack-single-stim	s585	False
398.707	1.0	2.0	398.706	0	PA_without_intermediate	test	ward_and_allport	-1	40.0	n/a	feedback	poldrack-single-stim	s585	False
400.72	2.063	2.063	402.783	1	PA_without_intermediate	test	ward_and_allport	82	41.0	2.063	to_hand	poldrack-single-stim	s585	False
402.785	0.1	0.354	403.139	0	PA_without_intermediate	test	ward_and_allport	89	41.0	0.354	to_board	poldrack-single-stim	s585	False
403.152	0.1	2.2	405.352	0	PA_without_intermediate	test	ward_and_allport	82	41.0	2.2	to_hand	poldrack-single-stim	s585	False
405.353	0.1	0.377	405.73	0	PA_without_intermediate	test	ward_and_allport	89	41.0	0.377	to_board	poldrack-single-stim	s585	False
405.741	0.1	1.479	407.22	0	PA_without_intermediate	test	ward_and_allport	82	41.0	1.479	to_hand	poldrack-single-stim	s585	False
407.221	0.1	0.434	407.655	0	PA_without_intermediate	test	ward_and_allport	71	41.0	0.434	to_board	poldrack-single-stim	s585	False
407.665	1.0	2.408	407.664	0	PA_without_intermediate	test	ward_and_allport	-1	41.0	n/a	feedback	poldrack-single-stim	s585	False
410.083	1.917	1.917	412.0	1	PA_with_intermediate	test	ward_and_allport	82	42.0	1.917	to_hand	poldrack-single-stim	s585	False
412.001	0.1	1.16	413.161	0	PA_with_intermediate	test	ward_and_allport	71	42.0	1.16	to_board	poldrack-single-stim	s585	False
413.173	0.1	0.476	413.649	0	PA_with_intermediate	test	ward_and_allport	82	42.0	0.476	to_hand	poldrack-single-stim	s585	False
413.65	0.1	0.44	414.09	0	PA_with_intermediate	test	ward_and_allport	89	42.0	0.44	to_board	poldrack-single-stim	s585	False
414.103	0.1	0.504	414.607	0	PA_with_intermediate	test	ward_and_allport	71	42.0	0.504	to_hand	poldrack-single-stim	s585	False
414.608	0.1	0.375	414.983	0	PA_with_intermediate	test	ward_and_allport	89	42.0	0.375	to_board	poldrack-single-stim	s585	False
414.998	1.0	2.136	414.997	0	PA_with_intermediate	test	ward_and_allport	-1	42.0	n/a	feedback	poldrack-single-stim	s585	False
417.143	1.032	1.032	418.175	1	PA_without_intermediate	test	ward_and_allport	71	43.0	1.032	to_hand	poldrack-single-stim	s585	False
418.177	0.1	0.622	418.799	0	PA_without_intermediate	test	ward_and_allport	82	43.0	0.622	to_board	poldrack-single-stim	s585	False
418.808	0.1	0.766	419.574	0	PA_without_intermediate	test	ward_and_allport	71	43.0	0.766	to_hand	poldrack-single-stim	s585	False
419.575	0.1	0.344	419.919	0	PA_without_intermediate	test	ward_and_allport	82	43.0	0.344	to_board	poldrack-single-stim	s585	False
419.927	0.1	0.734	420.661	0	PA_without_intermediate	test	ward_and_allport	71	43.0	0.734	to_hand	poldrack-single-stim	s585	False
420.662	0.1	0.392	421.054	0	PA_without_intermediate	test	ward_and_allport	89	43.0	0.392	to_board	poldrack-single-stim	s585	False
421.067	1.0	5.128	421.066	0	PA_without_intermediate	test	ward_and_allport	-1	43.0	n/a	feedback	poldrack-single-stim	s585	False
426.205	2.53	2.53	428.735	1	PA_without_intermediate	test	ward_and_allport	89	44.0	2.53	to_hand	poldrack-single-stim	s585	False
428.737	0.1	0.38	429.117	0	PA_without_intermediate	test	ward_and_allport	82	44.0	0.38	to_board	poldrack-single-stim	s585	False
429.13	0.1	0.455	429.585	0	PA_without_intermediate	test	ward_and_allport	89	44.0	0.455	to_hand	poldrack-single-stim	s585	False
429.586	0.1	0.648	430.234	0	PA_without_intermediate	test	ward_and_allport	82	44.0	0.648	to_board	poldrack-single-stim	s585	False
430.248	0.1	0.778	431.026	0	PA_without_intermediate	test	ward_and_allport	89	44.0	0.778	to_hand	poldrack-single-stim	s585	False
431.028	0.1	0.624	431.652	0	PA_without_intermediate	test	ward_and_allport	71	44.0	0.624	to_board	poldrack-single-stim	s585	False
431.665	1.0	2.136	431.664	0	PA_without_intermediate	test	ward_and_allport	-1	44.0	n/a	feedback	poldrack-single-stim	s585	False
438.819	1.868	1.868	440.687	1	PA_without_intermediate	test	ward_and_allport	89	45.0	1.868	to_hand	poldrack-single-stim	s585	False
440.689	0.1	0.388	441.077	0	PA_without_intermediate	test	ward_and_allport	71	45.0	0.388	to_board	poldrack-single-stim	s585	False
441.09	0.1	0.41	441.5	0	PA_without_intermediate	test	ward_and_allport	89	45.0	0.41	to_hand	poldrack-single-stim	s585	False
441.501	0.1	0.307	441.808	0	PA_without_intermediate	test	ward_and_allport	71	45.0	0.307	to_board	poldrack-single-stim	s585	False
441.824	0.1	0.372	442.196	0	PA_without_intermediate	test	ward_and_allport	89	45.0	0.372	to_hand	poldrack-single-stim	s585	False
442.197	0.1	0.354	442.551	0	PA_without_intermediate	test	ward_and_allport	82	45.0	0.354	to_board	poldrack-single-stim	s585	False
442.57	1.0	5.264	442.569	0	PA_without_intermediate	test	ward_and_allport	-1	45.0	n/a	feedback	poldrack-single-stim	s585	False
447.844	1.654	1.654	449.498	1	PA_with_intermediate	test	ward_and_allport	89	46.0	1.654	to_hand	poldrack-single-stim	s585	False
449.499	0.1	0.329	449.828	0	PA_with_intermediate	test	ward_and_allport	71	46.0	0.329	to_board	poldrack-single-stim	s585	False
449.841	0.1	1.069	450.91	0	PA_with_intermediate	test	ward_and_allport	71	46.0	1.069	to_hand	poldrack-single-stim	s585	False
450.912	0.1	0.387	451.299	0	PA_with_intermediate	test	ward_and_allport	82	46.0	0.387	to_board	poldrack-single-stim	s585	False
451.315	0.1	0.371	451.686	0	PA_with_intermediate	test	ward_and_allport	89	46.0	0.371	to_hand	poldrack-single-stim	s585	False
451.687	0.1	0.441	452.128	0	PA_with_intermediate	test	ward_and_allport	71	46.0	0.441	to_board	poldrack-single-stim	s585	False
452.142	0.1	0.363	452.505	0	PA_with_intermediate	test	ward_and_allport	82	46.0	0.363	to_hand	poldrack-single-stim	s585	False
452.506	0.1	0.428	452.934	0	PA_with_intermediate	test	ward_and_allport	71	46.0	0.428	to_board	poldrack-single-stim	s585	False
452.945	1.0	4.04	452.944	0	PA_with_intermediate	test	ward_and_allport	-1	46.0	n/a	feedback	poldrack-single-stim	s585	False
456.995	2.478	2.478	459.473	1	PA_with_intermediate	test	ward_and_allport	71	47.0	2.478	to_hand	poldrack-single-stim	s585	False
459.474	0.1	0.31	459.784	0	PA_with_intermediate	test	ward_and_allport	89	47.0	0.31	to_board	poldrack-single-stim	s585	False
459.794	0.1	0.518	460.312	0	PA_with_intermediate	test	ward_and_allport	71	47.0	0.518	to_hand	poldrack-single-stim	s585	False
460.313	0.1	0.408	460.721	0	PA_with_intermediate	test	ward_and_allport	82	47.0	0.408	to_board	poldrack-single-stim	s585	False
460.734	0.1	0.399	461.133	0	PA_with_intermediate	test	ward_and_allport	89	47.0	0.399	to_hand	poldrack-single-stim	s585	False
461.135	0.1	0.422	461.557	0	PA_with_intermediate	test	ward_and_allport	82	47.0	0.422	to_board	poldrack-single-stim	s585	False
461.576	1.0	2.136	461.575	0	PA_with_intermediate	test	ward_and_allport	-1	47.0	n/a	feedback	poldrack-single-stim	s585	False
