onset	duration	block_duration	movement_onset	planning	condition	exp_stage	experiment_exp_id	key_press	problem_id	response_time	trial_id	trial_type	worker_id	junk
3.006	3.717	3.717	6.723	1	UA_with_intermediate	practice	ward_and_allport	71	0.0	3.717	to_hand	poldrack-single-stim	s465	False
6.724	0.1	2.341	9.065	0	UA_with_intermediate	practice	ward_and_allport	82	0.0	2.341	to_board	poldrack-single-stim	s465	False
9.068	0.1	0.894	9.962	0	UA_with_intermediate	practice	ward_and_allport	71	0.0	0.894	to_hand	poldrack-single-stim	s465	False
9.963	0.1	0.707	10.67	0	UA_with_intermediate	practice	ward_and_allport	89	0.0	0.707	to_board	poldrack-single-stim	s465	False
10.67	0.1	1.194	11.864	0	UA_with_intermediate	practice	ward_and_allport	82	0.0	1.194	to_hand	poldrack-single-stim	s465	False
11.865	0.1	0.466	12.331	0	UA_with_intermediate	practice	ward_and_allport	89	0.0	0.466	to_board	poldrack-single-stim	s465	False
12.335	1.0	2.5	12.334	0	UA_with_intermediate	practice	ward_and_allport	-1	0.0	n/a	feedback	poldrack-single-stim	s465	False
14.838	3.288	3.288	18.126	1	UA_with_intermediate	practice	ward_and_allport	89	1.0	3.288	to_hand	poldrack-single-stim	s465	False
18.127	0.1	1.219	19.346	0	UA_with_intermediate	practice	ward_and_allport	82	1.0	1.219	to_board	poldrack-single-stim	s465	False
19.349	0.1	0.747	20.096	0	UA_with_intermediate	practice	ward_and_allport	71	1.0	0.747	to_hand	poldrack-single-stim	s465	False
20.097	0.1	0.439	20.536	0	UA_with_intermediate	practice	ward_and_allport	89	1.0	0.439	to_board	poldrack-single-stim	s465	False
20.538	0.1	0.839	21.377	0	UA_with_intermediate	practice	ward_and_allport	82	1.0	0.839	to_hand	poldrack-single-stim	s465	False
21.377	0.1	0.34	21.717	0	UA_with_intermediate	practice	ward_and_allport	89	1.0	0.34	to_board	poldrack-single-stim	s465	False
21.719	1.0	2.1	21.718	0	UA_with_intermediate	practice	ward_and_allport	-1	1.0	n/a	feedback	poldrack-single-stim	s465	False
23.821	4.275	4.275	28.096	1	UA_without_intermediate	practice	ward_and_allport	82	2.0	4.275	to_hand	poldrack-single-stim	s465	False
28.096	0.1	0.327	28.423	0	UA_without_intermediate	practice	ward_and_allport	89	2.0	0.327	to_board	poldrack-single-stim	s465	False
28.425	0.1	1.116	29.541	0	UA_without_intermediate	practice	ward_and_allport	71	2.0	1.116	to_hand	poldrack-single-stim	s465	False
29.541	0.1	0.238	29.779	0	UA_without_intermediate	practice	ward_and_allport	89	2.0	0.238	to_board	poldrack-single-stim	s465	False
29.781	0.1	0.757	30.538	0	UA_without_intermediate	practice	ward_and_allport	71	2.0	0.757	to_hand	poldrack-single-stim	s465	False
30.538	0.1	0.142	30.68	0	UA_without_intermediate	practice	ward_and_allport	89	2.0	0.142	to_board	poldrack-single-stim	s465	False
30.684	1.0	2.2	30.683	0	UA_without_intermediate	practice	ward_and_allport	-1	2.0	n/a	feedback	poldrack-single-stim	s465	False
32.886	2.254	2.254	35.14	1	UA_without_intermediate	practice	ward_and_allport	71	3.0	2.254	to_hand	poldrack-single-stim	s465	False
35.14	0.1	0.354	35.494	0	UA_without_intermediate	practice	ward_and_allport	89	3.0	0.354	to_board	poldrack-single-stim	s465	False
35.498	0.1	1.273	36.771	0	UA_without_intermediate	practice	ward_and_allport	82	3.0	1.273	to_hand	poldrack-single-stim	s465	False
36.772	0.1	0.803	37.575	0	UA_without_intermediate	practice	ward_and_allport	89	3.0	0.803	to_board	poldrack-single-stim	s465	False
37.576	0.1	1.078	38.654	0	UA_without_intermediate	practice	ward_and_allport	71	3.0	1.078	to_hand	poldrack-single-stim	s465	False
38.655	0.1	0.426	39.081	0	UA_without_intermediate	practice	ward_and_allport	89	3.0	0.426	to_board	poldrack-single-stim	s465	False
39.085	1.0	2.0	39.084	0	UA_without_intermediate	practice	ward_and_allport	-1	3.0	n/a	feedback	poldrack-single-stim	s465	False
43.09	2.324	2.324	45.414	1	PA_with_intermediate	test	ward_and_allport	71	0.0	2.324	to_hand	poldrack-single-stim	s465	False
45.415	0.1	0.331	45.746	0	PA_with_intermediate	test	ward_and_allport	89	0.0	0.331	to_board	poldrack-single-stim	s465	False
45.748	0.1	0.655	46.403	0	PA_with_intermediate	test	ward_and_allport	71	0.0	0.655	to_hand	poldrack-single-stim	s465	False
46.404	0.1	0.276	46.68	0	PA_with_intermediate	test	ward_and_allport	82	0.0	0.276	to_board	poldrack-single-stim	s465	False
46.681	0.1	2.281	48.962	0	PA_with_intermediate	test	ward_and_allport	89	0.0	2.281	to_hand	poldrack-single-stim	s465	False
48.963	0.1	0.718	49.681	0	PA_with_intermediate	test	ward_and_allport	82	0.0	0.718	to_board	poldrack-single-stim	s465	False
49.683	1.0	2.408	49.682	0	PA_with_intermediate	test	ward_and_allport	-1	0.0	n/a	feedback	poldrack-single-stim	s465	False
52.092	2.837	2.837	54.929	1	PA_without_intermediate	test	ward_and_allport	89	1.0	2.837	to_hand	poldrack-single-stim	s465	False
54.93	0.1	0.711	55.641	0	PA_without_intermediate	test	ward_and_allport	82	1.0	0.711	to_board	poldrack-single-stim	s465	False
55.643	0.1	0.782	56.425	0	PA_without_intermediate	test	ward_and_allport	89	1.0	0.782	to_hand	poldrack-single-stim	s465	False
56.426	0.1	0.626	57.052	0	PA_without_intermediate	test	ward_and_allport	82	1.0	0.626	to_board	poldrack-single-stim	s465	False
57.054	0.1	1.598	58.652	0	PA_without_intermediate	test	ward_and_allport	89	1.0	1.598	to_hand	poldrack-single-stim	s465	False
58.654	0.1	0.815	59.469	0	PA_without_intermediate	test	ward_and_allport	71	1.0	0.815	to_board	poldrack-single-stim	s465	False
59.472	1.0	2.68	59.471	0	PA_without_intermediate	test	ward_and_allport	-1	1.0	n/a	feedback	poldrack-single-stim	s465	False
62.155	3.021	3.021	65.176	1	PA_with_intermediate	test	ward_and_allport	71	2.0	3.021	to_hand	poldrack-single-stim	s465	False
65.177	0.1	0.249	65.426	0	PA_with_intermediate	test	ward_and_allport	82	2.0	0.249	to_board	poldrack-single-stim	s465	False
65.428	0.1	0.901	66.329	0	PA_with_intermediate	test	ward_and_allport	71	2.0	0.901	to_hand	poldrack-single-stim	s465	False
66.33	0.1	0.326	66.656	0	PA_with_intermediate	test	ward_and_allport	89	2.0	0.326	to_board	poldrack-single-stim	s465	False
66.658	0.1	1.422	68.08	0	PA_with_intermediate	test	ward_and_allport	82	2.0	1.422	to_hand	poldrack-single-stim	s465	False
68.081	0.1	0.381	68.462	0	PA_with_intermediate	test	ward_and_allport	89	2.0	0.381	to_board	poldrack-single-stim	s465	False
68.465	1.0	4.72	68.464	0	PA_with_intermediate	test	ward_and_allport	-1	2.0	n/a	feedback	poldrack-single-stim	s465	False
73.187	2.734	2.734	75.921	1	PA_without_intermediate	test	ward_and_allport	89	3.0	2.734	to_hand	poldrack-single-stim	s465	False
75.922	0.1	1.003	76.925	0	PA_without_intermediate	test	ward_and_allport	71	3.0	1.003	to_board	poldrack-single-stim	s465	False
76.927	0.1	2.603	79.53	0	PA_without_intermediate	test	ward_and_allport	89	3.0	2.603	to_hand	poldrack-single-stim	s465	False
79.532	0.1	0.873	80.405	0	PA_without_intermediate	test	ward_and_allport	71	3.0	0.873	to_board	poldrack-single-stim	s465	False
80.407	0.1	0.674	81.081	0	PA_without_intermediate	test	ward_and_allport	89	3.0	0.674	to_hand	poldrack-single-stim	s465	False
81.082	0.1	0.459	81.541	0	PA_without_intermediate	test	ward_and_allport	82	3.0	0.459	to_board	poldrack-single-stim	s465	False
81.546	1.0	3.224	81.545	0	PA_without_intermediate	test	ward_and_allport	-1	3.0	n/a	feedback	poldrack-single-stim	s465	False
84.771	2.916	2.916	87.687	1	PA_without_intermediate	test	ward_and_allport	82	4.0	2.916	to_hand	poldrack-single-stim	s465	False
87.688	0.1	0.675	88.363	0	PA_without_intermediate	test	ward_and_allport	71	4.0	0.675	to_board	poldrack-single-stim	s465	False
88.365	0.1	1.77	90.135	0	PA_without_intermediate	test	ward_and_allport	82	4.0	1.77	to_hand	poldrack-single-stim	s465	False
90.136	0.1	0.751	90.887	0	PA_without_intermediate	test	ward_and_allport	71	4.0	0.751	to_board	poldrack-single-stim	s465	False
90.891	0.1	0.908	91.799	0	PA_without_intermediate	test	ward_and_allport	82	4.0	0.908	to_hand	poldrack-single-stim	s465	False
91.799	0.1	0.297	92.096	0	PA_without_intermediate	test	ward_and_allport	89	4.0	0.297	to_board	poldrack-single-stim	s465	False
92.1	1.0	2.272	92.099	0	PA_without_intermediate	test	ward_and_allport	-1	4.0	n/a	feedback	poldrack-single-stim	s465	False
94.375	3.459	3.459	97.834	1	PA_with_intermediate	test	ward_and_allport	82	5.0	3.459	to_hand	poldrack-single-stim	s465	False
97.836	0.1	0.657	98.493	0	PA_with_intermediate	test	ward_and_allport	89	5.0	0.657	to_board	poldrack-single-stim	s465	False
98.494	0.1	1.247	99.741	0	PA_with_intermediate	test	ward_and_allport	82	5.0	1.247	to_hand	poldrack-single-stim	s465	False
99.743	0.1	0.582	100.325	0	PA_with_intermediate	test	ward_and_allport	71	5.0	0.582	to_board	poldrack-single-stim	s465	False
100.328	0.1	0.836	101.164	0	PA_with_intermediate	test	ward_and_allport	89	5.0	0.836	to_hand	poldrack-single-stim	s465	False
101.166	0.1	0.318	101.484	0	PA_with_intermediate	test	ward_and_allport	82	5.0	0.318	to_board	poldrack-single-stim	s465	False
101.488	1.0	3.632	101.487	0	PA_with_intermediate	test	ward_and_allport	-1	5.0	n/a	feedback	poldrack-single-stim	s465	False
105.123	3.131	3.131	108.254	1	PA_without_intermediate	test	ward_and_allport	82	6.0	3.131	to_hand	poldrack-single-stim	s465	False
108.256	0.1	0.353	108.609	0	PA_without_intermediate	test	ward_and_allport	71	6.0	0.353	to_board	poldrack-single-stim	s465	False
108.611	0.1	0.931	109.542	0	PA_without_intermediate	test	ward_and_allport	82	6.0	0.931	to_hand	poldrack-single-stim	s465	False
109.542	0.1	0.236	109.778	0	PA_without_intermediate	test	ward_and_allport	89	6.0	0.236	to_board	poldrack-single-stim	s465	False
109.781	0.1	0.997	110.778	0	PA_without_intermediate	test	ward_and_allport	82	6.0	0.997	to_hand	poldrack-single-stim	s465	False
110.78	0.1	0.472	111.252	0	PA_without_intermediate	test	ward_and_allport	71	6.0	0.472	to_board	poldrack-single-stim	s465	False
111.256	1.0	2.408	111.255	0	PA_without_intermediate	test	ward_and_allport	-1	6.0	n/a	feedback	poldrack-single-stim	s465	False
113.668	2.518	2.518	116.186	1	PA_without_intermediate	test	ward_and_allport	82	7.0	2.518	to_hand	poldrack-single-stim	s465	False
116.188	0.1	0.279	116.467	0	PA_without_intermediate	test	ward_and_allport	89	7.0	0.279	to_board	poldrack-single-stim	s465	False
116.469	0.1	1.249	117.718	0	PA_without_intermediate	test	ward_and_allport	82	7.0	1.249	to_hand	poldrack-single-stim	s465	False
117.72	0.1	0.37	118.09	0	PA_without_intermediate	test	ward_and_allport	71	7.0	0.37	to_board	poldrack-single-stim	s465	False
118.092	0.1	0.501	118.593	0	PA_without_intermediate	test	ward_and_allport	82	7.0	0.501	to_hand	poldrack-single-stim	s465	False
118.594	0.1	0.238	118.832	0	PA_without_intermediate	test	ward_and_allport	89	7.0	0.238	to_board	poldrack-single-stim	s465	False
118.837	1.0	2.0	118.836	0	PA_without_intermediate	test	ward_and_allport	-1	7.0	n/a	feedback	poldrack-single-stim	s465	False
120.84	4.05	4.05	124.89	1	PA_with_intermediate	test	ward_and_allport	89	8.0	4.05	to_hand	poldrack-single-stim	s465	False
124.891	0.1	0.314	125.205	0	PA_with_intermediate	test	ward_and_allport	82	8.0	0.314	to_board	poldrack-single-stim	s465	False
125.208	0.1	1.78	126.988	0	PA_with_intermediate	test	ward_and_allport	82	8.0	1.78	to_hand	poldrack-single-stim	s465	False
126.988	0.1	0.553	127.541	0	PA_with_intermediate	test	ward_and_allport	71	8.0	0.553	to_board	poldrack-single-stim	s465	False
127.543	0.1	0.68	128.223	0	PA_with_intermediate	test	ward_and_allport	89	8.0	0.68	to_hand	poldrack-single-stim	s465	False
128.225	0.1	0.698	128.923	0	PA_with_intermediate	test	ward_and_allport	82	8.0	0.698	to_board	poldrack-single-stim	s465	False
128.927	0.1	0.721	129.648	0	PA_with_intermediate	test	ward_and_allport	71	8.0	0.721	to_hand	poldrack-single-stim	s465	False
129.649	0.1	0.328	129.977	0	PA_with_intermediate	test	ward_and_allport	82	8.0	0.328	to_board	poldrack-single-stim	s465	False
129.981	1.0	2.0	129.98	0	PA_with_intermediate	test	ward_and_allport	-1	8.0	n/a	feedback	poldrack-single-stim	s465	False
131.985	2.895	2.895	134.88	1	PA_with_intermediate	test	ward_and_allport	89	9.0	2.895	to_hand	poldrack-single-stim	s465	False
134.88	0.1	0.248	135.128	0	PA_with_intermediate	test	ward_and_allport	82	9.0	0.248	to_board	poldrack-single-stim	s465	False
135.131	0.1	0.759	135.89	0	PA_with_intermediate	test	ward_and_allport	89	9.0	0.759	to_hand	poldrack-single-stim	s465	False
135.89	0.1	0.511	136.401	0	PA_with_intermediate	test	ward_and_allport	71	9.0	0.511	to_board	poldrack-single-stim	s465	False
136.405	0.1	0.612	137.017	0	PA_with_intermediate	test	ward_and_allport	82	9.0	0.612	to_hand	poldrack-single-stim	s465	False
137.017	0.1	0.223	137.24	0	PA_with_intermediate	test	ward_and_allport	89	9.0	0.223	to_board	poldrack-single-stim	s465	False
137.246	1.0	2.0	137.245	0	PA_with_intermediate	test	ward_and_allport	-1	9.0	n/a	feedback	poldrack-single-stim	s465	False
139.249	3.812	3.812	143.061	1	PA_with_intermediate	test	ward_and_allport	89	10.0	3.812	to_hand	poldrack-single-stim	s465	False
143.063	0.1	0.678	143.741	0	PA_with_intermediate	test	ward_and_allport	71	10.0	0.678	to_board	poldrack-single-stim	s465	False
143.746	0.1	0.603	144.349	0	PA_with_intermediate	test	ward_and_allport	89	10.0	0.603	to_hand	poldrack-single-stim	s465	False
144.349	0.1	0.359	144.708	0	PA_with_intermediate	test	ward_and_allport	82	10.0	0.359	to_board	poldrack-single-stim	s465	False
144.713	0.1	1.0	145.713	0	PA_with_intermediate	test	ward_and_allport	71	10.0	1.0	to_hand	poldrack-single-stim	s465	False
145.714	0.1	0.208	145.922	0	PA_with_intermediate	test	ward_and_allport	82	10.0	0.208	to_board	poldrack-single-stim	s465	False
145.928	1.0	2.408	145.927	0	PA_with_intermediate	test	ward_and_allport	-1	10.0	n/a	feedback	poldrack-single-stim	s465	False
148.341	3.14	3.14	151.481	1	PA_without_intermediate	test	ward_and_allport	71	11.0	3.14	to_hand	poldrack-single-stim	s465	False
151.481	0.1	0.241	151.722	0	PA_without_intermediate	test	ward_and_allport	82	11.0	0.241	to_board	poldrack-single-stim	s465	False
151.725	0.1	1.071	152.796	0	PA_without_intermediate	test	ward_and_allport	71	11.0	1.071	to_hand	poldrack-single-stim	s465	False
152.796	0.1	0.16	152.956	0	PA_without_intermediate	test	ward_and_allport	89	11.0	0.16	to_board	poldrack-single-stim	s465	False
152.959	0.1	0.728	153.687	0	PA_without_intermediate	test	ward_and_allport	71	11.0	0.728	to_hand	poldrack-single-stim	s465	False
153.688	0.1	0.157	153.845	0	PA_without_intermediate	test	ward_and_allport	82	11.0	0.157	to_board	poldrack-single-stim	s465	False
153.85	1.0	2.816	153.849	0	PA_without_intermediate	test	ward_and_allport	-1	11.0	n/a	feedback	poldrack-single-stim	s465	False
156.67	2.795	2.795	159.465	1	PA_with_intermediate	test	ward_and_allport	82	12.0	2.795	to_hand	poldrack-single-stim	s465	False
159.466	0.1	0.27	159.736	0	PA_with_intermediate	test	ward_and_allport	71	12.0	0.27	to_board	poldrack-single-stim	s465	False
159.74	0.1	0.598	160.338	0	PA_with_intermediate	test	ward_and_allport	82	12.0	0.598	to_hand	poldrack-single-stim	s465	False
160.339	0.1	0.266	160.605	0	PA_with_intermediate	test	ward_and_allport	89	12.0	0.266	to_board	poldrack-single-stim	s465	False
160.61	0.1	0.84	161.45	0	PA_with_intermediate	test	ward_and_allport	71	12.0	0.84	to_hand	poldrack-single-stim	s465	False
161.451	0.1	0.33	161.781	0	PA_with_intermediate	test	ward_and_allport	89	12.0	0.33	to_board	poldrack-single-stim	s465	False
161.787	1.0	4.176	161.786	0	PA_with_intermediate	test	ward_and_allport	-1	12.0	n/a	feedback	poldrack-single-stim	s465	False
165.967	2.522	2.522	168.489	1	PA_with_intermediate	test	ward_and_allport	82	13.0	2.522	to_hand	poldrack-single-stim	s465	False
168.49	0.1	0.275	168.765	0	PA_with_intermediate	test	ward_and_allport	71	13.0	0.275	to_board	poldrack-single-stim	s465	False
168.769	0.1	0.936	169.705	0	PA_with_intermediate	test	ward_and_allport	82	13.0	0.936	to_hand	poldrack-single-stim	s465	False
169.708	0.1	0.171	169.879	0	PA_with_intermediate	test	ward_and_allport	89	13.0	0.171	to_board	poldrack-single-stim	s465	False
169.882	0.1	0.481	170.363	0	PA_with_intermediate	test	ward_and_allport	71	13.0	0.481	to_hand	poldrack-single-stim	s465	False
170.364	0.1	0.197	170.561	0	PA_with_intermediate	test	ward_and_allport	82	13.0	0.197	to_board	poldrack-single-stim	s465	False
170.566	1.0	3.36	170.565	0	PA_with_intermediate	test	ward_and_allport	-1	13.0	n/a	feedback	poldrack-single-stim	s465	False
173.929	2.133	2.133	176.062	1	PA_with_intermediate	test	ward_and_allport	82	14.0	2.133	to_hand	poldrack-single-stim	s465	False
176.062	0.1	0.208	176.27	0	PA_with_intermediate	test	ward_and_allport	89	14.0	0.208	to_board	poldrack-single-stim	s465	False
176.274	0.1	0.71	176.984	0	PA_with_intermediate	test	ward_and_allport	82	14.0	0.71	to_hand	poldrack-single-stim	s465	False
176.985	0.1	0.638	177.623	0	PA_with_intermediate	test	ward_and_allport	71	14.0	0.638	to_board	poldrack-single-stim	s465	False
177.626	0.1	0.646	178.272	0	PA_with_intermediate	test	ward_and_allport	89	14.0	0.646	to_hand	poldrack-single-stim	s465	False
178.274	0.1	0.197	178.471	0	PA_with_intermediate	test	ward_and_allport	82	14.0	0.197	to_board	poldrack-single-stim	s465	False
178.474	0.1	1.48	179.954	0	PA_with_intermediate	test	ward_and_allport	82	14.0	1.48	to_hand	poldrack-single-stim	s465	False
179.955	0.1	0.63	180.585	0	PA_with_intermediate	test	ward_and_allport	71	14.0	0.63	to_board	poldrack-single-stim	s465	False
180.591	1.0	2.0	180.59	0	PA_with_intermediate	test	ward_and_allport	-1	14.0	n/a	feedback	poldrack-single-stim	s465	False
187.598	2.259	2.259	189.857	1	PA_without_intermediate	test	ward_and_allport	71	15.0	2.259	to_hand	poldrack-single-stim	s465	False
189.858	0.1	0.351	190.209	0	PA_without_intermediate	test	ward_and_allport	82	15.0	0.351	to_board	poldrack-single-stim	s465	False
190.214	0.1	1.432	191.646	0	PA_without_intermediate	test	ward_and_allport	71	15.0	1.432	to_hand	poldrack-single-stim	s465	False
191.647	0.1	0.357	192.004	0	PA_without_intermediate	test	ward_and_allport	89	15.0	0.357	to_board	poldrack-single-stim	s465	False
192.008	0.1	0.497	192.505	0	PA_without_intermediate	test	ward_and_allport	71	15.0	0.497	to_hand	poldrack-single-stim	s465	False
192.505	0.1	0.26	192.765	0	PA_without_intermediate	test	ward_and_allport	82	15.0	0.26	to_board	poldrack-single-stim	s465	False
192.771	1.0	2.408	192.77	0	PA_without_intermediate	test	ward_and_allport	-1	15.0	n/a	feedback	poldrack-single-stim	s465	False
195.183	3.78	3.78	198.963	1	PA_with_intermediate	test	ward_and_allport	82	16.0	3.78	to_hand	poldrack-single-stim	s465	False
198.963	0.1	0.333	199.296	0	PA_with_intermediate	test	ward_and_allport	71	16.0	0.333	to_board	poldrack-single-stim	s465	False
199.3	0.1	0.684	199.984	0	PA_with_intermediate	test	ward_and_allport	82	16.0	0.684	to_hand	poldrack-single-stim	s465	False
199.985	0.1	0.386	200.371	0	PA_with_intermediate	test	ward_and_allport	89	16.0	0.386	to_board	poldrack-single-stim	s465	False
200.375	0.1	0.754	201.129	0	PA_with_intermediate	test	ward_and_allport	71	16.0	0.754	to_hand	poldrack-single-stim	s465	False
201.129	0.1	0.161	201.29	0	PA_with_intermediate	test	ward_and_allport	89	16.0	0.161	to_board	poldrack-single-stim	s465	False
201.297	1.0	2.816	201.296	0	PA_with_intermediate	test	ward_and_allport	-1	16.0	n/a	feedback	poldrack-single-stim	s465	False
204.118	4.892	4.892	209.01	1	PA_without_intermediate	test	ward_and_allport	89	17.0	4.892	to_hand	poldrack-single-stim	s465	False
209.012	0.1	1.384	210.396	0	PA_without_intermediate	test	ward_and_allport	71	17.0	1.384	to_board	poldrack-single-stim	s465	False
210.401	0.1	1.128	211.529	0	PA_without_intermediate	test	ward_and_allport	89	17.0	1.128	to_hand	poldrack-single-stim	s465	False
211.53	0.1	0.586	212.116	0	PA_without_intermediate	test	ward_and_allport	71	17.0	0.586	to_board	poldrack-single-stim	s465	False
212.121	0.1	0.406	212.527	0	PA_without_intermediate	test	ward_and_allport	89	17.0	0.406	to_hand	poldrack-single-stim	s465	False
212.528	0.1	0.569	213.097	0	PA_without_intermediate	test	ward_and_allport	82	17.0	0.569	to_board	poldrack-single-stim	s465	False
213.103	1.0	3.088	213.102	0	PA_without_intermediate	test	ward_and_allport	-1	17.0	n/a	feedback	poldrack-single-stim	s465	False
216.196	2.677	2.677	218.873	1	PA_without_intermediate	test	ward_and_allport	82	18.0	2.677	to_hand	poldrack-single-stim	s465	False
218.874	0.1	0.554	219.428	0	PA_without_intermediate	test	ward_and_allport	71	18.0	0.554	to_board	poldrack-single-stim	s465	False
219.432	0.1	1.629	221.061	0	PA_without_intermediate	test	ward_and_allport	82	18.0	1.629	to_hand	poldrack-single-stim	s465	False
221.062	0.1	0.396	221.458	0	PA_without_intermediate	test	ward_and_allport	71	18.0	0.396	to_board	poldrack-single-stim	s465	False
221.462	0.1	0.55	222.012	0	PA_without_intermediate	test	ward_and_allport	82	18.0	0.55	to_hand	poldrack-single-stim	s465	False
222.014	0.1	0.25	222.264	0	PA_without_intermediate	test	ward_and_allport	89	18.0	0.25	to_board	poldrack-single-stim	s465	False
222.269	1.0	2.136	222.268	0	PA_without_intermediate	test	ward_and_allport	-1	18.0	n/a	feedback	poldrack-single-stim	s465	False
224.409	2.005	2.005	226.414	1	PA_without_intermediate	test	ward_and_allport	71	19.0	2.005	to_hand	poldrack-single-stim	s465	False
226.415	0.1	0.293	226.708	0	PA_without_intermediate	test	ward_and_allport	82	19.0	0.293	to_board	poldrack-single-stim	s465	False
226.713	0.1	0.592	227.305	0	PA_without_intermediate	test	ward_and_allport	71	19.0	0.592	to_hand	poldrack-single-stim	s465	False
227.306	0.1	0.296	227.602	0	PA_without_intermediate	test	ward_and_allport	82	19.0	0.296	to_board	poldrack-single-stim	s465	False
227.607	0.1	0.844	228.451	0	PA_without_intermediate	test	ward_and_allport	71	19.0	0.844	to_hand	poldrack-single-stim	s465	False
228.452	0.1	0.151	228.603	0	PA_without_intermediate	test	ward_and_allport	89	19.0	0.151	to_board	poldrack-single-stim	s465	False
228.608	1.0	7.168	228.607	0	PA_without_intermediate	test	ward_and_allport	-1	19.0	n/a	feedback	poldrack-single-stim	s465	False
235.78	2.572	2.572	238.352	1	PA_without_intermediate	test	ward_and_allport	89	20.0	2.572	to_hand	poldrack-single-stim	s465	False
238.352	0.1	0.263	238.615	0	PA_without_intermediate	test	ward_and_allport	82	20.0	0.263	to_board	poldrack-single-stim	s465	False
238.62	0.1	1.085	239.705	0	PA_without_intermediate	test	ward_and_allport	89	20.0	1.085	to_hand	poldrack-single-stim	s465	False
239.706	0.1	0.286	239.992	0	PA_without_intermediate	test	ward_and_allport	82	20.0	0.286	to_board	poldrack-single-stim	s465	False
239.996	0.1	0.621	240.617	0	PA_without_intermediate	test	ward_and_allport	89	20.0	0.621	to_hand	poldrack-single-stim	s465	False
240.618	0.1	0.418	241.036	0	PA_without_intermediate	test	ward_and_allport	71	20.0	0.418	to_board	poldrack-single-stim	s465	False
241.043	1.0	2.816	241.042	0	PA_without_intermediate	test	ward_and_allport	-1	20.0	n/a	feedback	poldrack-single-stim	s465	False
243.865	2.256	2.256	246.121	1	PA_with_intermediate	test	ward_and_allport	89	21.0	2.256	to_hand	poldrack-single-stim	s465	False
246.122	0.1	0.805	246.927	0	PA_with_intermediate	test	ward_and_allport	82	21.0	0.805	to_board	poldrack-single-stim	s465	False
246.932	0.1	0.642	247.574	0	PA_with_intermediate	test	ward_and_allport	89	21.0	0.642	to_hand	poldrack-single-stim	s465	False
247.575	0.1	0.423	247.998	0	PA_with_intermediate	test	ward_and_allport	71	21.0	0.423	to_board	poldrack-single-stim	s465	False
248.003	0.1	0.48	248.483	0	PA_with_intermediate	test	ward_and_allport	82	21.0	0.48	to_hand	poldrack-single-stim	s465	False
248.483	0.1	0.802	249.285	0	PA_with_intermediate	test	ward_and_allport	71	21.0	0.802	to_board	poldrack-single-stim	s465	False
249.292	1.0	2.952	249.291	0	PA_with_intermediate	test	ward_and_allport	-1	21.0	n/a	feedback	poldrack-single-stim	s465	False
252.251	2.477	2.477	254.728	1	PA_with_intermediate	test	ward_and_allport	71	22.0	2.477	to_hand	poldrack-single-stim	s465	False
254.729	0.1	1.149	255.878	0	PA_with_intermediate	test	ward_and_allport	82	22.0	1.149	to_board	poldrack-single-stim	s465	False
255.883	0.1	0.847	256.73	0	PA_with_intermediate	test	ward_and_allport	71	22.0	0.847	to_hand	poldrack-single-stim	s465	False
256.732	0.1	0.676	257.408	0	PA_with_intermediate	test	ward_and_allport	89	22.0	0.676	to_board	poldrack-single-stim	s465	False
257.414	0.1	1.925	259.339	0	PA_with_intermediate	test	ward_and_allport	82	22.0	1.925	to_hand	poldrack-single-stim	s465	False
259.34	0.1	0.638	259.978	0	PA_with_intermediate	test	ward_and_allport	89	22.0	0.638	to_board	poldrack-single-stim	s465	False
259.986	1.0	2.136	259.985	0	PA_with_intermediate	test	ward_and_allport	-1	22.0	n/a	feedback	poldrack-single-stim	s465	False
262.129	2.326	2.326	264.455	1	PA_without_intermediate	test	ward_and_allport	89	23.0	2.326	to_hand	poldrack-single-stim	s465	False
264.456	0.1	0.553	265.009	0	PA_without_intermediate	test	ward_and_allport	82	23.0	0.553	to_board	poldrack-single-stim	s465	False
265.016	0.1	1.246	266.262	0	PA_without_intermediate	test	ward_and_allport	89	23.0	1.246	to_hand	poldrack-single-stim	s465	False
266.262	0.1	0.432	266.694	0	PA_without_intermediate	test	ward_and_allport	71	23.0	0.432	to_board	poldrack-single-stim	s465	False
266.7	0.1	0.352	267.052	0	PA_without_intermediate	test	ward_and_allport	89	23.0	0.352	to_hand	poldrack-single-stim	s465	False
267.054	0.1	0.285	267.339	0	PA_without_intermediate	test	ward_and_allport	82	23.0	0.285	to_board	poldrack-single-stim	s465	False
267.346	1.0	2.68	267.345	0	PA_without_intermediate	test	ward_and_allport	-1	23.0	n/a	feedback	poldrack-single-stim	s465	False
270.033	2.353	2.353	272.386	1	PA_without_intermediate	test	ward_and_allport	82	24.0	2.353	to_hand	poldrack-single-stim	s465	False
272.387	0.1	0.221	272.608	0	PA_without_intermediate	test	ward_and_allport	89	24.0	0.221	to_board	poldrack-single-stim	s465	False
272.614	0.1	1.543	274.157	0	PA_without_intermediate	test	ward_and_allport	82	24.0	1.543	to_hand	poldrack-single-stim	s465	False
274.158	0.1	0.256	274.414	0	PA_without_intermediate	test	ward_and_allport	71	24.0	0.256	to_board	poldrack-single-stim	s465	False
274.421	0.1	0.559	274.98	0	PA_without_intermediate	test	ward_and_allport	82	24.0	0.559	to_hand	poldrack-single-stim	s465	False
274.981	0.1	0.149	275.13	0	PA_without_intermediate	test	ward_and_allport	89	24.0	0.149	to_board	poldrack-single-stim	s465	False
275.137	1.0	3.088	275.136	0	PA_without_intermediate	test	ward_and_allport	-1	24.0	n/a	feedback	poldrack-single-stim	s465	False
278.232	3.686	3.686	281.918	1	PA_with_intermediate	test	ward_and_allport	82	25.0	3.686	to_hand	poldrack-single-stim	s465	False
281.918	0.1	0.17	282.088	0	PA_with_intermediate	test	ward_and_allport	89	25.0	0.17	to_board	poldrack-single-stim	s465	False
282.094	0.1	1.674	283.768	0	PA_with_intermediate	test	ward_and_allport	82	25.0	1.674	to_hand	poldrack-single-stim	s465	False
283.769	0.1	0.76	284.529	0	PA_with_intermediate	test	ward_and_allport	71	25.0	0.76	to_board	poldrack-single-stim	s465	False
284.535	0.1	0.52	285.055	0	PA_with_intermediate	test	ward_and_allport	89	25.0	0.52	to_hand	poldrack-single-stim	s465	False
285.056	0.1	0.21	285.266	0	PA_with_intermediate	test	ward_and_allport	82	25.0	0.21	to_board	poldrack-single-stim	s465	False
285.275	1.0	2.0	285.274	0	PA_with_intermediate	test	ward_and_allport	-1	25.0	n/a	feedback	poldrack-single-stim	s465	False
287.281	2.433	2.433	289.714	1	PA_without_intermediate	test	ward_and_allport	89	26.0	2.433	to_hand	poldrack-single-stim	s465	False
289.716	0.1	0.349	290.065	0	PA_without_intermediate	test	ward_and_allport	82	26.0	0.349	to_board	poldrack-single-stim	s465	False
290.072	0.1	1.005	291.077	0	PA_without_intermediate	test	ward_and_allport	89	26.0	1.005	to_hand	poldrack-single-stim	s465	False
291.078	0.1	0.378	291.456	0	PA_without_intermediate	test	ward_and_allport	71	26.0	0.378	to_board	poldrack-single-stim	s465	False
291.464	0.1	0.465	291.929	0	PA_without_intermediate	test	ward_and_allport	89	26.0	0.465	to_hand	poldrack-single-stim	s465	False
291.929	0.1	0.196	292.125	0	PA_without_intermediate	test	ward_and_allport	82	26.0	0.196	to_board	poldrack-single-stim	s465	False
292.134	1.0	2.0	292.133	0	PA_without_intermediate	test	ward_and_allport	-1	26.0	n/a	feedback	poldrack-single-stim	s465	False
294.141	2.985	2.985	297.126	1	PA_without_intermediate	test	ward_and_allport	89	27.0	2.985	to_hand	poldrack-single-stim	s465	False
297.127	0.1	0.782	297.909	0	PA_without_intermediate	test	ward_and_allport	71	27.0	0.782	to_board	poldrack-single-stim	s465	False
297.916	0.1	0.512	298.428	0	PA_without_intermediate	test	ward_and_allport	89	27.0	0.512	to_hand	poldrack-single-stim	s465	False
298.429	0.1	0.413	298.842	0	PA_without_intermediate	test	ward_and_allport	82	27.0	0.413	to_board	poldrack-single-stim	s465	False
298.849	0.1	0.348	299.197	0	PA_without_intermediate	test	ward_and_allport	89	27.0	0.348	to_hand	poldrack-single-stim	s465	False
299.197	0.1	0.436	299.633	0	PA_without_intermediate	test	ward_and_allport	71	27.0	0.436	to_board	poldrack-single-stim	s465	False
299.642	1.0	2.0	299.641	0	PA_without_intermediate	test	ward_and_allport	-1	27.0	n/a	feedback	poldrack-single-stim	s465	False
301.648	3.806	3.806	305.454	1	PA_with_intermediate	test	ward_and_allport	71	28.0	3.806	to_hand	poldrack-single-stim	s465	False
305.455	0.1	0.208	305.663	0	PA_with_intermediate	test	ward_and_allport	89	28.0	0.208	to_board	poldrack-single-stim	s465	False
305.67	0.1	0.78	306.45	0	PA_with_intermediate	test	ward_and_allport	71	28.0	0.78	to_hand	poldrack-single-stim	s465	False
306.45	0.1	0.196	306.646	0	PA_with_intermediate	test	ward_and_allport	82	28.0	0.196	to_board	poldrack-single-stim	s465	False
306.653	0.1	0.498	307.151	0	PA_with_intermediate	test	ward_and_allport	89	28.0	0.498	to_hand	poldrack-single-stim	s465	False
307.153	0.1	0.177	307.33	0	PA_with_intermediate	test	ward_and_allport	82	28.0	0.177	to_board	poldrack-single-stim	s465	False
307.338	1.0	2.544	307.337	0	PA_with_intermediate	test	ward_and_allport	-1	28.0	n/a	feedback	poldrack-single-stim	s465	False
309.89	2.757	2.757	312.647	1	PA_without_intermediate	test	ward_and_allport	82	29.0	2.757	to_hand	poldrack-single-stim	s465	False
312.647	0.1	0.775	313.422	0	PA_without_intermediate	test	ward_and_allport	71	29.0	0.775	to_board	poldrack-single-stim	s465	False
313.43	0.1	1.468	314.898	0	PA_without_intermediate	test	ward_and_allport	82	29.0	1.468	to_hand	poldrack-single-stim	s465	False
314.899	0.1	0.217	315.116	0	PA_without_intermediate	test	ward_and_allport	89	29.0	0.217	to_board	poldrack-single-stim	s465	False
315.124	0.1	1.075	316.199	0	PA_without_intermediate	test	ward_and_allport	82	29.0	1.075	to_hand	poldrack-single-stim	s465	False
316.199	0.1	0.427	316.626	0	PA_without_intermediate	test	ward_and_allport	71	29.0	0.427	to_board	poldrack-single-stim	s465	False
316.635	1.0	2.272	316.634	0	PA_without_intermediate	test	ward_and_allport	-1	29.0	n/a	feedback	poldrack-single-stim	s465	False
323.916	3.787	3.787	327.703	1	PA_with_intermediate	test	ward_and_allport	89	30.0	3.787	to_hand	poldrack-single-stim	s465	False
327.704	0.1	0.204	327.908	0	PA_with_intermediate	test	ward_and_allport	82	30.0	0.204	to_board	poldrack-single-stim	s465	False
327.915	0.1	1.194	329.109	0	PA_with_intermediate	test	ward_and_allport	89	30.0	1.194	to_hand	poldrack-single-stim	s465	False
329.11	0.1	0.644	329.754	0	PA_with_intermediate	test	ward_and_allport	71	30.0	0.644	to_board	poldrack-single-stim	s465	False
329.762	0.1	0.485	330.247	0	PA_with_intermediate	test	ward_and_allport	82	30.0	0.485	to_hand	poldrack-single-stim	s465	False
330.248	0.1	0.228	330.476	0	PA_with_intermediate	test	ward_and_allport	89	30.0	0.228	to_board	poldrack-single-stim	s465	False
330.485	1.0	4.04	330.484	0	PA_with_intermediate	test	ward_and_allport	-1	30.0	n/a	feedback	poldrack-single-stim	s465	False
334.533	2.555	2.555	337.088	1	PA_with_intermediate	test	ward_and_allport	82	31.0	2.555	to_hand	poldrack-single-stim	s465	False
337.089	0.1	0.373	337.462	0	PA_with_intermediate	test	ward_and_allport	89	31.0	0.373	to_board	poldrack-single-stim	s465	False
337.469	0.1	1.178	338.647	0	PA_with_intermediate	test	ward_and_allport	82	31.0	1.178	to_hand	poldrack-single-stim	s465	False
338.648	0.1	0.383	339.031	0	PA_with_intermediate	test	ward_and_allport	71	31.0	0.383	to_board	poldrack-single-stim	s465	False
339.04	0.1	0.506	339.546	0	PA_with_intermediate	test	ward_and_allport	89	31.0	0.506	to_hand	poldrack-single-stim	s465	False
339.547	0.1	0.312	339.859	0	PA_with_intermediate	test	ward_and_allport	82	31.0	0.312	to_board	poldrack-single-stim	s465	False
339.868	0.1	0.743	340.611	0	PA_with_intermediate	test	ward_and_allport	71	31.0	0.743	to_hand	poldrack-single-stim	s465	False
340.613	0.1	1.168	341.781	0	PA_with_intermediate	test	ward_and_allport	71	31.0	1.168	to_board	poldrack-single-stim	s465	False
341.788	0.1	0.527	342.315	0	PA_with_intermediate	test	ward_and_allport	82	31.0	0.527	to_hand	poldrack-single-stim	s465	False
342.315	0.1	0.979	343.294	0	PA_with_intermediate	test	ward_and_allport	71	31.0	0.979	to_board	poldrack-single-stim	s465	False
343.302	1.0	2.272	343.301	0	PA_with_intermediate	test	ward_and_allport	-1	31.0	n/a	feedback	poldrack-single-stim	s465	False
345.58	2.765	2.765	348.345	1	PA_with_intermediate	test	ward_and_allport	89	32.0	2.765	to_hand	poldrack-single-stim	s465	False
348.347	0.1	0.387	348.734	0	PA_with_intermediate	test	ward_and_allport	82	32.0	0.387	to_board	poldrack-single-stim	s465	False
348.742	0.1	1.289	350.031	0	PA_with_intermediate	test	ward_and_allport	89	32.0	1.289	to_hand	poldrack-single-stim	s465	False
350.032	0.1	0.483	350.515	0	PA_with_intermediate	test	ward_and_allport	71	32.0	0.483	to_board	poldrack-single-stim	s465	False
350.524	0.1	0.671	351.195	0	PA_with_intermediate	test	ward_and_allport	82	32.0	0.671	to_hand	poldrack-single-stim	s465	False
351.197	0.1	0.252	351.449	0	PA_with_intermediate	test	ward_and_allport	89	32.0	0.252	to_board	poldrack-single-stim	s465	False
351.457	0.1	1.186	352.643	0	PA_with_intermediate	test	ward_and_allport	89	32.0	1.186	to_hand	poldrack-single-stim	s465	False
352.644	0.1	0.567	353.211	0	PA_with_intermediate	test	ward_and_allport	71	32.0	0.567	to_board	poldrack-single-stim	s465	False
353.218	1.0	2.136	353.217	0	PA_with_intermediate	test	ward_and_allport	-1	32.0	n/a	feedback	poldrack-single-stim	s465	False
355.36	4.19	4.19	359.55	1	PA_with_intermediate	test	ward_and_allport	89	33.0	4.19	to_hand	poldrack-single-stim	s465	False
359.551	0.1	1.342	360.893	0	PA_with_intermediate	test	ward_and_allport	71	33.0	1.342	to_board	poldrack-single-stim	s465	False
360.899	0.1	0.826	361.725	0	PA_with_intermediate	test	ward_and_allport	89	33.0	0.826	to_hand	poldrack-single-stim	s465	False
361.725	0.1	0.69	362.415	0	PA_with_intermediate	test	ward_and_allport	82	33.0	0.69	to_board	poldrack-single-stim	s465	False
362.423	0.1	0.718	363.141	0	PA_with_intermediate	test	ward_and_allport	71	33.0	0.718	to_hand	poldrack-single-stim	s465	False
363.142	0.1	0.552	363.694	0	PA_with_intermediate	test	ward_and_allport	89	33.0	0.552	to_board	poldrack-single-stim	s465	False
363.705	1.0	2.0	363.704	0	PA_with_intermediate	test	ward_and_allport	-1	33.0	n/a	feedback	poldrack-single-stim	s465	False
365.712	2.953	2.953	368.665	1	PA_with_intermediate	test	ward_and_allport	71	34.0	2.953	to_hand	poldrack-single-stim	s465	False
368.666	0.1	0.638	369.304	0	PA_with_intermediate	test	ward_and_allport	82	34.0	0.638	to_board	poldrack-single-stim	s465	False
369.313	0.1	0.571	369.884	0	PA_with_intermediate	test	ward_and_allport	71	34.0	0.571	to_hand	poldrack-single-stim	s465	False
369.885	0.1	0.431	370.316	0	PA_with_intermediate	test	ward_and_allport	89	34.0	0.431	to_board	poldrack-single-stim	s465	False
370.325	0.1	0.651	370.976	0	PA_with_intermediate	test	ward_and_allport	82	34.0	0.651	to_hand	poldrack-single-stim	s465	False
370.976	0.1	0.514	371.49	0	PA_with_intermediate	test	ward_and_allport	71	34.0	0.514	to_board	poldrack-single-stim	s465	False
371.5	1.0	2.0	371.499	0	PA_with_intermediate	test	ward_and_allport	-1	34.0	n/a	feedback	poldrack-single-stim	s465	False
373.506	1.968	1.968	375.474	1	PA_without_intermediate	test	ward_and_allport	71	35.0	1.968	to_hand	poldrack-single-stim	s465	False
375.476	0.1	0.451	375.927	0	PA_without_intermediate	test	ward_and_allport	82	35.0	0.451	to_board	poldrack-single-stim	s465	False
375.933	0.1	0.569	376.502	0	PA_without_intermediate	test	ward_and_allport	71	35.0	0.569	to_hand	poldrack-single-stim	s465	False
376.504	0.1	0.446	376.95	0	PA_without_intermediate	test	ward_and_allport	82	35.0	0.446	to_board	poldrack-single-stim	s465	False
376.955	0.1	0.582	377.537	0	PA_without_intermediate	test	ward_and_allport	71	35.0	0.582	to_hand	poldrack-single-stim	s465	False
377.54	0.1	0.375	377.915	0	PA_without_intermediate	test	ward_and_allport	89	35.0	0.375	to_board	poldrack-single-stim	s465	False
377.925	1.0	2.408	377.924	0	PA_without_intermediate	test	ward_and_allport	-1	35.0	n/a	feedback	poldrack-single-stim	s465	False
380.339	3.911	3.911	384.25	1	PA_with_intermediate	test	ward_and_allport	71	36.0	3.911	to_hand	poldrack-single-stim	s465	False
384.251	0.1	1.392	385.643	0	PA_with_intermediate	test	ward_and_allport	89	36.0	1.392	to_board	poldrack-single-stim	s465	False
385.65	0.1	0.639	386.289	0	PA_with_intermediate	test	ward_and_allport	71	36.0	0.639	to_hand	poldrack-single-stim	s465	False
386.29	0.1	0.218	386.508	0	PA_with_intermediate	test	ward_and_allport	82	36.0	0.218	to_board	poldrack-single-stim	s465	False
386.517	0.1	1.256	387.773	0	PA_with_intermediate	test	ward_and_allport	71	36.0	1.256	to_hand	poldrack-single-stim	s465	False
387.775	0.1	0.982	388.757	0	PA_with_intermediate	test	ward_and_allport	71	36.0	0.982	to_board	poldrack-single-stim	s465	False
388.766	0.1	0.286	389.052	0	PA_with_intermediate	test	ward_and_allport	89	36.0	0.286	to_hand	poldrack-single-stim	s465	False
389.052	0.1	0.776	389.828	0	PA_with_intermediate	test	ward_and_allport	71	36.0	0.776	to_board	poldrack-single-stim	s465	False
389.838	1.0	3.768	389.837	0	PA_with_intermediate	test	ward_and_allport	-1	36.0	n/a	feedback	poldrack-single-stim	s465	False
393.614	2.378	2.378	395.992	1	PA_with_intermediate	test	ward_and_allport	89	37.0	2.378	to_hand	poldrack-single-stim	s465	False
395.993	0.1	0.494	396.487	0	PA_with_intermediate	test	ward_and_allport	71	37.0	0.494	to_board	poldrack-single-stim	s465	False
396.495	0.1	0.774	397.269	0	PA_with_intermediate	test	ward_and_allport	89	37.0	0.774	to_hand	poldrack-single-stim	s465	False
397.27	0.1	0.522	397.792	0	PA_with_intermediate	test	ward_and_allport	82	37.0	0.522	to_board	poldrack-single-stim	s465	False
397.801	0.1	0.509	398.31	0	PA_with_intermediate	test	ward_and_allport	71	37.0	0.509	to_hand	poldrack-single-stim	s465	False
398.311	0.1	0.225	398.536	0	PA_with_intermediate	test	ward_and_allport	89	37.0	0.225	to_board	poldrack-single-stim	s465	False
398.545	1.0	2.68	398.544	0	PA_with_intermediate	test	ward_and_allport	-1	37.0	n/a	feedback	poldrack-single-stim	s465	False
401.233	3.185	3.185	404.418	1	PA_without_intermediate	test	ward_and_allport	82	38.0	3.185	to_hand	poldrack-single-stim	s465	False
404.419	0.1	0.501	404.92	0	PA_without_intermediate	test	ward_and_allport	89	38.0	0.501	to_board	poldrack-single-stim	s465	False
404.927	0.1	1.151	406.078	0	PA_without_intermediate	test	ward_and_allport	82	38.0	1.151	to_hand	poldrack-single-stim	s465	False
406.078	0.1	0.346	406.424	0	PA_without_intermediate	test	ward_and_allport	89	38.0	0.346	to_board	poldrack-single-stim	s465	False
406.431	0.1	1.36	407.791	0	PA_without_intermediate	test	ward_and_allport	82	38.0	1.36	to_hand	poldrack-single-stim	s465	False
407.792	0.1	0.236	408.028	0	PA_without_intermediate	test	ward_and_allport	71	38.0	0.236	to_board	poldrack-single-stim	s465	False
408.039	1.0	3.224	408.038	0	PA_without_intermediate	test	ward_and_allport	-1	38.0	n/a	feedback	poldrack-single-stim	s465	False
411.272	2.4	2.4	413.672	1	PA_without_intermediate	test	ward_and_allport	71	39.0	2.4	to_hand	poldrack-single-stim	s465	False
413.673	0.1	0.42	414.093	0	PA_without_intermediate	test	ward_and_allport	89	39.0	0.42	to_board	poldrack-single-stim	s465	False
414.104	0.1	0.716	414.82	0	PA_without_intermediate	test	ward_and_allport	71	39.0	0.716	to_hand	poldrack-single-stim	s465	False
414.82	0.1	0.271	415.091	0	PA_without_intermediate	test	ward_and_allport	82	39.0	0.271	to_board	poldrack-single-stim	s465	False
415.101	0.1	0.495	415.596	0	PA_without_intermediate	test	ward_and_allport	71	39.0	0.495	to_hand	poldrack-single-stim	s465	False
415.596	0.1	0.174	415.77	0	PA_without_intermediate	test	ward_and_allport	89	39.0	0.174	to_board	poldrack-single-stim	s465	False
415.78	1.0	3.36	415.779	0	PA_without_intermediate	test	ward_and_allport	-1	39.0	n/a	feedback	poldrack-single-stim	s465	False
419.148	2.041	2.041	421.189	1	PA_without_intermediate	test	ward_and_allport	82	40.0	2.041	to_hand	poldrack-single-stim	s465	False
421.19	0.1	0.308	421.498	0	PA_without_intermediate	test	ward_and_allport	89	40.0	0.308	to_board	poldrack-single-stim	s465	False
421.504	0.1	0.945	422.449	0	PA_without_intermediate	test	ward_and_allport	82	40.0	0.945	to_hand	poldrack-single-stim	s465	False
422.451	0.1	0.263	422.714	0	PA_without_intermediate	test	ward_and_allport	89	40.0	0.263	to_board	poldrack-single-stim	s465	False
422.723	0.1	0.594	423.317	0	PA_without_intermediate	test	ward_and_allport	82	40.0	0.594	to_hand	poldrack-single-stim	s465	False
423.318	0.1	0.238	423.556	0	PA_without_intermediate	test	ward_and_allport	71	40.0	0.238	to_board	poldrack-single-stim	s465	False
423.567	1.0	2.0	423.566	0	PA_without_intermediate	test	ward_and_allport	-1	40.0	n/a	feedback	poldrack-single-stim	s465	False
425.577	1.726	1.726	427.303	1	PA_without_intermediate	test	ward_and_allport	71	41.0	1.726	to_hand	poldrack-single-stim	s465	False
427.304	0.1	0.179	427.483	0	PA_without_intermediate	test	ward_and_allport	89	41.0	0.179	to_board	poldrack-single-stim	s465	False
427.492	0.1	0.871	428.363	0	PA_without_intermediate	test	ward_and_allport	71	41.0	0.871	to_hand	poldrack-single-stim	s465	False
428.363	0.1	0.218	428.581	0	PA_without_intermediate	test	ward_and_allport	89	41.0	0.218	to_board	poldrack-single-stim	s465	False
428.588	0.1	0.562	429.15	0	PA_without_intermediate	test	ward_and_allport	71	41.0	0.562	to_hand	poldrack-single-stim	s465	False
429.15	0.1	0.2	429.35	0	PA_without_intermediate	test	ward_and_allport	82	41.0	0.2	to_board	poldrack-single-stim	s465	False
429.359	1.0	2.408	429.358	0	PA_without_intermediate	test	ward_and_allport	-1	41.0	n/a	feedback	poldrack-single-stim	s465	False
431.775	2.009	2.009	433.784	1	PA_with_intermediate	test	ward_and_allport	82	42.0	2.009	to_hand	poldrack-single-stim	s465	False
433.784	0.1	0.405	434.189	0	PA_with_intermediate	test	ward_and_allport	71	42.0	0.405	to_board	poldrack-single-stim	s465	False
434.198	0.1	0.578	434.776	0	PA_with_intermediate	test	ward_and_allport	82	42.0	0.578	to_hand	poldrack-single-stim	s465	False
434.776	0.1	0.3	435.076	0	PA_with_intermediate	test	ward_and_allport	89	42.0	0.3	to_board	poldrack-single-stim	s465	False
435.083	0.1	0.548	435.631	0	PA_with_intermediate	test	ward_and_allport	71	42.0	0.548	to_hand	poldrack-single-stim	s465	False
435.632	0.1	0.247	435.879	0	PA_with_intermediate	test	ward_and_allport	82	42.0	0.247	to_board	poldrack-single-stim	s465	False
435.888	1.0	2.136	435.887	0	PA_with_intermediate	test	ward_and_allport	-1	42.0	n/a	feedback	poldrack-single-stim	s465	False
438.031	1.742	1.742	439.773	1	PA_without_intermediate	test	ward_and_allport	71	43.0	1.742	to_hand	poldrack-single-stim	s465	False
439.773	0.1	0.172	439.945	0	PA_without_intermediate	test	ward_and_allport	89	43.0	0.172	to_board	poldrack-single-stim	s465	False
439.952	0.1	1.102	441.054	0	PA_without_intermediate	test	ward_and_allport	71	43.0	1.102	to_hand	poldrack-single-stim	s465	False
441.056	0.1	0.321	441.377	0	PA_without_intermediate	test	ward_and_allport	82	43.0	0.321	to_board	poldrack-single-stim	s465	False
441.384	0.1	0.534	441.918	0	PA_without_intermediate	test	ward_and_allport	71	43.0	0.534	to_hand	poldrack-single-stim	s465	False
441.919	0.1	0.267	442.186	0	PA_without_intermediate	test	ward_and_allport	89	43.0	0.267	to_board	poldrack-single-stim	s465	False
442.194	1.0	5.128	442.193	0	PA_without_intermediate	test	ward_and_allport	-1	43.0	n/a	feedback	poldrack-single-stim	s465	False
447.329	1.532	1.532	448.861	1	PA_without_intermediate	test	ward_and_allport	71	44.0	1.532	to_hand	poldrack-single-stim	s465	False
448.861	0.1	0.236	449.097	0	PA_without_intermediate	test	ward_and_allport	89	44.0	0.236	to_board	poldrack-single-stim	s465	False
449.104	0.1	0.82	449.924	0	PA_without_intermediate	test	ward_and_allport	71	44.0	0.82	to_hand	poldrack-single-stim	s465	False
449.926	0.1	0.261	450.187	0	PA_without_intermediate	test	ward_and_allport	89	44.0	0.261	to_board	poldrack-single-stim	s465	False
450.196	0.1	0.404	450.6	0	PA_without_intermediate	test	ward_and_allport	71	44.0	0.404	to_hand	poldrack-single-stim	s465	False
450.601	0.1	0.234	450.835	0	PA_without_intermediate	test	ward_and_allport	82	44.0	0.234	to_board	poldrack-single-stim	s465	False
450.848	1.0	2.136	450.847	0	PA_without_intermediate	test	ward_and_allport	-1	44.0	n/a	feedback	poldrack-single-stim	s465	False
457.995	2.543	2.543	460.538	1	PA_without_intermediate	test	ward_and_allport	89	45.0	2.543	to_hand	poldrack-single-stim	s465	False
460.539	0.1	0.415	460.954	0	PA_without_intermediate	test	ward_and_allport	71	45.0	0.415	to_board	poldrack-single-stim	s465	False
460.964	0.1	0.828	461.792	0	PA_without_intermediate	test	ward_and_allport	89	45.0	0.828	to_hand	poldrack-single-stim	s465	False
461.793	0.1	0.485	462.278	0	PA_without_intermediate	test	ward_and_allport	82	45.0	0.485	to_board	poldrack-single-stim	s465	False
462.29	0.1	0.667	462.957	0	PA_without_intermediate	test	ward_and_allport	89	45.0	0.667	to_hand	poldrack-single-stim	s465	False
462.958	0.1	0.353	463.311	0	PA_without_intermediate	test	ward_and_allport	71	45.0	0.353	to_board	poldrack-single-stim	s465	False
463.321	1.0	5.264	463.32	0	PA_without_intermediate	test	ward_and_allport	-1	45.0	n/a	feedback	poldrack-single-stim	s465	False
468.593	2.626	2.626	471.219	1	PA_with_intermediate	test	ward_and_allport	71	46.0	2.626	to_hand	poldrack-single-stim	s465	False
471.22	0.1	0.323	471.543	0	PA_with_intermediate	test	ward_and_allport	82	46.0	0.323	to_board	poldrack-single-stim	s465	False
471.552	0.1	0.44	471.992	0	PA_with_intermediate	test	ward_and_allport	71	46.0	0.44	to_hand	poldrack-single-stim	s465	False
471.994	0.1	0.272	472.266	0	PA_with_intermediate	test	ward_and_allport	89	46.0	0.272	to_board	poldrack-single-stim	s465	False
472.278	0.1	0.767	473.045	0	PA_with_intermediate	test	ward_and_allport	82	46.0	0.767	to_hand	poldrack-single-stim	s465	False
473.045	0.1	0.422	473.467	0	PA_with_intermediate	test	ward_and_allport	71	46.0	0.422	to_board	poldrack-single-stim	s465	False
473.479	1.0	4.04	473.478	0	PA_with_intermediate	test	ward_and_allport	-1	46.0	n/a	feedback	poldrack-single-stim	s465	False
477.529	2.275	2.275	479.804	1	PA_with_intermediate	test	ward_and_allport	71	47.0	2.275	to_hand	poldrack-single-stim	s465	False
479.805	0.1	0.196	480.001	0	PA_with_intermediate	test	ward_and_allport	89	47.0	0.196	to_board	poldrack-single-stim	s465	False
480.011	0.1	0.549	480.56	0	PA_with_intermediate	test	ward_and_allport	71	47.0	0.549	to_hand	poldrack-single-stim	s465	False
480.56	0.1	0.252	480.812	0	PA_with_intermediate	test	ward_and_allport	82	47.0	0.252	to_board	poldrack-single-stim	s465	False
480.824	0.1	0.483	481.307	0	PA_with_intermediate	test	ward_and_allport	89	47.0	0.483	to_hand	poldrack-single-stim	s465	False
481.308	0.1	0.143	481.451	0	PA_with_intermediate	test	ward_and_allport	71	47.0	0.143	to_board	poldrack-single-stim	s465	False
481.462	1.0	2.136	481.461	0	PA_with_intermediate	test	ward_and_allport	-1	47.0	n/a	feedback	poldrack-single-stim	s465	False
