onset	duration	block_duration	movement_onset	planning	condition	exp_stage	experiment_exp_id	key_press	problem_id	response_time	trial_id	trial_type	worker_id	junk
3.009	2.598	2.598	5.607	1	UA_with_intermediate	practice	ward_and_allport	71	0.0	2.598	to_hand	poldrack-single-stim	s615	False
5.609	0.1	1.15	6.759	0	UA_with_intermediate	practice	ward_and_allport	82	0.0	1.15	to_board	poldrack-single-stim	s615	False
6.762	0.1	0.596	7.358	0	UA_with_intermediate	practice	ward_and_allport	71	0.0	0.596	to_hand	poldrack-single-stim	s615	False
7.359	0.1	0.474	7.833	0	UA_with_intermediate	practice	ward_and_allport	89	0.0	0.474	to_board	poldrack-single-stim	s615	False
7.835	0.1	0.978	8.813	0	UA_with_intermediate	practice	ward_and_allport	82	0.0	0.978	to_hand	poldrack-single-stim	s615	False
8.815	0.1	0.45	9.265	0	UA_with_intermediate	practice	ward_and_allport	89	0.0	0.45	to_board	poldrack-single-stim	s615	False
9.27	1.0	2.5	9.269	0	UA_with_intermediate	practice	ward_and_allport	-1	0.0	n/a	feedback	poldrack-single-stim	s615	False
11.773	3.492	3.492	15.265	1	UA_with_intermediate	practice	ward_and_allport	89	1.0	3.492	to_hand	poldrack-single-stim	s615	False
15.267	0.1	0.886	16.153	0	UA_with_intermediate	practice	ward_and_allport	82	1.0	0.886	to_board	poldrack-single-stim	s615	False
16.156	0.1	0.52	16.676	0	UA_with_intermediate	practice	ward_and_allport	71	1.0	0.52	to_hand	poldrack-single-stim	s615	False
16.679	0.1	0.542	17.221	0	UA_with_intermediate	practice	ward_and_allport	89	1.0	0.542	to_board	poldrack-single-stim	s615	False
17.223	0.1	0.541	17.764	0	UA_with_intermediate	practice	ward_and_allport	82	1.0	0.541	to_hand	poldrack-single-stim	s615	False
17.766	0.1	0.515	18.281	0	UA_with_intermediate	practice	ward_and_allport	89	1.0	0.515	to_board	poldrack-single-stim	s615	False
18.284	1.0	2.1	18.283	0	UA_with_intermediate	practice	ward_and_allport	-1	1.0	n/a	feedback	poldrack-single-stim	s615	False
20.385	2.003	2.003	22.388	1	UA_without_intermediate	practice	ward_and_allport	82	2.0	2.003	to_hand	poldrack-single-stim	s615	False
22.39	0.1	0.455	22.845	0	UA_without_intermediate	practice	ward_and_allport	89	2.0	0.455	to_board	poldrack-single-stim	s615	False
22.849	0.1	0.604	23.453	0	UA_without_intermediate	practice	ward_and_allport	71	2.0	0.604	to_hand	poldrack-single-stim	s615	False
23.455	0.1	0.449	23.904	0	UA_without_intermediate	practice	ward_and_allport	89	2.0	0.449	to_board	poldrack-single-stim	s615	False
23.905	0.1	0.78	24.685	0	UA_without_intermediate	practice	ward_and_allport	71	2.0	0.78	to_hand	poldrack-single-stim	s615	False
24.686	0.1	0.358	25.044	0	UA_without_intermediate	practice	ward_and_allport	89	2.0	0.358	to_board	poldrack-single-stim	s615	False
25.048	1.0	2.2	25.047	0	UA_without_intermediate	practice	ward_and_allport	-1	2.0	n/a	feedback	poldrack-single-stim	s615	False
27.25	1.364	1.364	28.614	1	UA_without_intermediate	practice	ward_and_allport	71	3.0	1.364	to_hand	poldrack-single-stim	s615	False
28.616	0.1	0.428	29.044	0	UA_without_intermediate	practice	ward_and_allport	89	3.0	0.428	to_board	poldrack-single-stim	s615	False
29.046	0.1	0.639	29.685	0	UA_without_intermediate	practice	ward_and_allport	82	3.0	0.639	to_hand	poldrack-single-stim	s615	False
29.686	0.1	0.561	30.247	0	UA_without_intermediate	practice	ward_and_allport	89	3.0	0.561	to_board	poldrack-single-stim	s615	False
30.249	0.1	0.355	30.604	0	UA_without_intermediate	practice	ward_and_allport	71	3.0	0.355	to_hand	poldrack-single-stim	s615	False
30.605	0.1	0.41	31.015	0	UA_without_intermediate	practice	ward_and_allport	89	3.0	0.41	to_board	poldrack-single-stim	s615	False
31.019	1.0	2.0	31.018	0	UA_without_intermediate	practice	ward_and_allport	-1	3.0	n/a	feedback	poldrack-single-stim	s615	False
35.025	1.454	1.454	36.479	1	PA_without_intermediate	test	ward_and_allport	71	0.0	1.454	to_hand	poldrack-single-stim	s615	False
36.479	0.1	0.538	37.017	0	PA_without_intermediate	test	ward_and_allport	82	0.0	0.538	to_board	poldrack-single-stim	s615	False
37.02	0.1	0.561	37.581	0	PA_without_intermediate	test	ward_and_allport	71	0.0	0.561	to_hand	poldrack-single-stim	s615	False
37.582	0.1	0.474	38.056	0	PA_without_intermediate	test	ward_and_allport	82	0.0	0.474	to_board	poldrack-single-stim	s615	False
38.059	0.1	0.425	38.484	0	PA_without_intermediate	test	ward_and_allport	71	0.0	0.425	to_hand	poldrack-single-stim	s615	False
38.486	0.1	0.387	38.873	0	PA_without_intermediate	test	ward_and_allport	89	0.0	0.387	to_board	poldrack-single-stim	s615	False
38.875	1.0	3.088	38.874	0	PA_without_intermediate	test	ward_and_allport	-1	0.0	n/a	feedback	poldrack-single-stim	s615	False
41.966	2.294	2.294	44.26	1	PA_with_intermediate	test	ward_and_allport	89	1.0	2.294	to_hand	poldrack-single-stim	s615	False
44.261	0.1	0.683	44.944	0	PA_with_intermediate	test	ward_and_allport	82	1.0	0.683	to_board	poldrack-single-stim	s615	False
44.947	0.1	1.131	46.078	0	PA_with_intermediate	test	ward_and_allport	89	1.0	1.131	to_hand	poldrack-single-stim	s615	False
46.079	0.1	0.522	46.601	0	PA_with_intermediate	test	ward_and_allport	71	1.0	0.522	to_board	poldrack-single-stim	s615	False
46.604	0.1	0.737	47.341	0	PA_with_intermediate	test	ward_and_allport	82	1.0	0.737	to_hand	poldrack-single-stim	s615	False
47.342	0.1	0.385	47.727	0	PA_with_intermediate	test	ward_and_allport	89	1.0	0.385	to_board	poldrack-single-stim	s615	False
47.734	1.0	2.0	47.733	0	PA_with_intermediate	test	ward_and_allport	-1	1.0	n/a	feedback	poldrack-single-stim	s615	False
49.736	2.11	2.11	51.846	1	PA_without_intermediate	test	ward_and_allport	82	2.0	2.11	to_hand	poldrack-single-stim	s615	False
51.847	0.1	0.488	52.335	0	PA_without_intermediate	test	ward_and_allport	89	2.0	0.488	to_board	poldrack-single-stim	s615	False
52.339	0.1	1.356	53.695	0	PA_without_intermediate	test	ward_and_allport	82	2.0	1.356	to_hand	poldrack-single-stim	s615	False
53.695	0.1	0.442	54.137	0	PA_without_intermediate	test	ward_and_allport	71	2.0	0.442	to_board	poldrack-single-stim	s615	False
54.14	0.1	0.523	54.663	0	PA_without_intermediate	test	ward_and_allport	82	2.0	0.523	to_hand	poldrack-single-stim	s615	False
54.664	0.1	0.397	55.061	0	PA_without_intermediate	test	ward_and_allport	89	2.0	0.397	to_board	poldrack-single-stim	s615	False
55.064	1.0	2.0	55.063	0	PA_without_intermediate	test	ward_and_allport	-1	2.0	n/a	feedback	poldrack-single-stim	s615	False
57.067	1.71	1.71	58.777	1	PA_without_intermediate	test	ward_and_allport	71	3.0	1.71	to_hand	poldrack-single-stim	s615	False
58.779	0.1	0.617	59.396	0	PA_without_intermediate	test	ward_and_allport	89	3.0	0.617	to_board	poldrack-single-stim	s615	False
59.399	0.1	0.616	60.015	0	PA_without_intermediate	test	ward_and_allport	71	3.0	0.616	to_hand	poldrack-single-stim	s615	False
60.017	0.1	0.368	60.385	0	PA_without_intermediate	test	ward_and_allport	82	3.0	0.368	to_board	poldrack-single-stim	s615	False
60.388	0.1	0.525	60.913	0	PA_without_intermediate	test	ward_and_allport	71	3.0	0.525	to_hand	poldrack-single-stim	s615	False
60.914	0.1	0.327	61.241	0	PA_without_intermediate	test	ward_and_allport	89	3.0	0.327	to_board	poldrack-single-stim	s615	False
61.244	1.0	2.0	61.243	0	PA_without_intermediate	test	ward_and_allport	-1	3.0	n/a	feedback	poldrack-single-stim	s615	False
63.247	1.855	1.855	65.102	1	PA_with_intermediate	test	ward_and_allport	71	4.0	1.855	to_hand	poldrack-single-stim	s615	False
65.103	0.1	0.567	65.67	0	PA_with_intermediate	test	ward_and_allport	82	4.0	0.567	to_board	poldrack-single-stim	s615	False
65.674	0.1	0.586	66.26	0	PA_with_intermediate	test	ward_and_allport	71	4.0	0.586	to_hand	poldrack-single-stim	s615	False
66.262	0.1	0.373	66.635	0	PA_with_intermediate	test	ward_and_allport	89	4.0	0.373	to_board	poldrack-single-stim	s615	False
66.638	0.1	0.371	67.009	0	PA_with_intermediate	test	ward_and_allport	82	4.0	0.371	to_hand	poldrack-single-stim	s615	False
67.01	0.1	0.447	67.457	0	PA_with_intermediate	test	ward_and_allport	71	4.0	0.447	to_board	poldrack-single-stim	s615	False
67.463	1.0	2.544	67.462	0	PA_with_intermediate	test	ward_and_allport	-1	4.0	n/a	feedback	poldrack-single-stim	s615	False
70.011	0.751	0.751	70.762	1	PA_without_intermediate	test	ward_and_allport	71	5.0	0.751	to_hand	poldrack-single-stim	s615	False
70.763	0.1	0.57	71.333	0	PA_without_intermediate	test	ward_and_allport	82	5.0	0.57	to_board	poldrack-single-stim	s615	False
71.337	0.1	0.404	71.741	0	PA_without_intermediate	test	ward_and_allport	71	5.0	0.404	to_hand	poldrack-single-stim	s615	False
71.741	0.1	0.394	72.135	0	PA_without_intermediate	test	ward_and_allport	82	5.0	0.394	to_board	poldrack-single-stim	s615	False
72.139	0.1	0.548	72.687	0	PA_without_intermediate	test	ward_and_allport	71	5.0	0.548	to_hand	poldrack-single-stim	s615	False
72.689	0.1	0.343	73.032	0	PA_without_intermediate	test	ward_and_allport	89	5.0	0.343	to_board	poldrack-single-stim	s615	False
73.036	1.0	2.272	73.035	0	PA_without_intermediate	test	ward_and_allport	-1	5.0	n/a	feedback	poldrack-single-stim	s615	False
75.312	0.779	0.779	76.091	1	PA_with_intermediate	test	ward_and_allport	71	6.0	0.779	to_hand	poldrack-single-stim	s615	False
76.092	0.1	0.993	77.085	0	PA_with_intermediate	test	ward_and_allport	82	6.0	0.993	to_board	poldrack-single-stim	s615	False
77.089	0.1	0.388	77.477	0	PA_with_intermediate	test	ward_and_allport	71	6.0	0.388	to_hand	poldrack-single-stim	s615	False
77.478	0.1	0.37	77.848	0	PA_with_intermediate	test	ward_and_allport	89	6.0	0.37	to_board	poldrack-single-stim	s615	False
77.853	0.1	0.82	78.673	0	PA_with_intermediate	test	ward_and_allport	82	6.0	0.82	to_hand	poldrack-single-stim	s615	False
78.675	0.1	0.334	79.009	0	PA_with_intermediate	test	ward_and_allport	71	6.0	0.334	to_board	poldrack-single-stim	s615	False
79.018	1.0	4.04	79.017	0	PA_with_intermediate	test	ward_and_allport	-1	6.0	n/a	feedback	poldrack-single-stim	s615	False
83.061	1.285	1.285	84.346	1	PA_with_intermediate	test	ward_and_allport	82	7.0	1.285	to_hand	poldrack-single-stim	s615	False
84.347	0.1	0.948	85.295	0	PA_with_intermediate	test	ward_and_allport	89	7.0	0.948	to_board	poldrack-single-stim	s615	False
85.299	0.1	0.941	86.24	0	PA_with_intermediate	test	ward_and_allport	82	7.0	0.941	to_hand	poldrack-single-stim	s615	False
86.241	0.1	0.41	86.651	0	PA_with_intermediate	test	ward_and_allport	71	7.0	0.41	to_board	poldrack-single-stim	s615	False
86.654	0.1	0.802	87.456	0	PA_with_intermediate	test	ward_and_allport	89	7.0	0.802	to_hand	poldrack-single-stim	s615	False
87.457	0.1	0.469	87.926	0	PA_with_intermediate	test	ward_and_allport	82	7.0	0.469	to_board	poldrack-single-stim	s615	False
87.933	1.0	2.272	87.932	0	PA_with_intermediate	test	ward_and_allport	-1	7.0	n/a	feedback	poldrack-single-stim	s615	False
90.209	2.144	2.144	92.353	1	PA_with_intermediate	test	ward_and_allport	82	8.0	2.144	to_hand	poldrack-single-stim	s615	False
92.354	0.1	0.523	92.877	0	PA_with_intermediate	test	ward_and_allport	71	8.0	0.523	to_board	poldrack-single-stim	s615	False
92.881	0.1	0.995	93.876	0	PA_with_intermediate	test	ward_and_allport	82	8.0	0.995	to_hand	poldrack-single-stim	s615	False
93.878	0.1	0.427	94.305	0	PA_with_intermediate	test	ward_and_allport	89	8.0	0.427	to_board	poldrack-single-stim	s615	False
94.309	0.1	0.557	94.866	0	PA_with_intermediate	test	ward_and_allport	71	8.0	0.557	to_hand	poldrack-single-stim	s615	False
94.867	0.1	0.403	95.27	0	PA_with_intermediate	test	ward_and_allport	89	8.0	0.403	to_board	poldrack-single-stim	s615	False
95.279	1.0	2.136	95.278	0	PA_with_intermediate	test	ward_and_allport	-1	8.0	n/a	feedback	poldrack-single-stim	s615	False
97.42	2.699	2.699	100.119	1	PA_with_intermediate	test	ward_and_allport	89	9.0	2.699	to_hand	poldrack-single-stim	s615	False
100.121	0.1	0.408	100.529	0	PA_with_intermediate	test	ward_and_allport	82	9.0	0.408	to_board	poldrack-single-stim	s615	False
100.533	0.1	0.89	101.423	0	PA_with_intermediate	test	ward_and_allport	89	9.0	0.89	to_hand	poldrack-single-stim	s615	False
101.424	0.1	0.378	101.802	0	PA_with_intermediate	test	ward_and_allport	71	9.0	0.378	to_board	poldrack-single-stim	s615	False
101.807	0.1	0.697	102.504	0	PA_with_intermediate	test	ward_and_allport	82	9.0	0.697	to_hand	poldrack-single-stim	s615	False
102.505	0.1	0.734	103.239	0	PA_with_intermediate	test	ward_and_allport	71	9.0	0.734	to_board	poldrack-single-stim	s615	False
103.245	1.0	2.0	103.244	0	PA_with_intermediate	test	ward_and_allport	-1	9.0	n/a	feedback	poldrack-single-stim	s615	False
105.25	1.904	1.904	107.154	1	PA_with_intermediate	test	ward_and_allport	82	10.0	1.904	to_hand	poldrack-single-stim	s615	False
107.156	0.1	0.482	107.638	0	PA_with_intermediate	test	ward_and_allport	89	10.0	0.482	to_board	poldrack-single-stim	s615	False
107.643	0.1	0.711	108.354	0	PA_with_intermediate	test	ward_and_allport	82	10.0	0.711	to_hand	poldrack-single-stim	s615	False
108.357	0.1	0.376	108.733	0	PA_with_intermediate	test	ward_and_allport	71	10.0	0.376	to_board	poldrack-single-stim	s615	False
108.739	0.1	0.706	109.445	0	PA_with_intermediate	test	ward_and_allport	89	10.0	0.706	to_hand	poldrack-single-stim	s615	False
109.446	0.1	0.434	109.88	0	PA_with_intermediate	test	ward_and_allport	82	10.0	0.434	to_board	poldrack-single-stim	s615	False
109.89	1.0	2.0	109.889	0	PA_with_intermediate	test	ward_and_allport	-1	10.0	n/a	feedback	poldrack-single-stim	s615	False
111.894	1.177	1.177	113.071	1	PA_without_intermediate	test	ward_and_allport	82	11.0	1.177	to_hand	poldrack-single-stim	s615	False
113.074	0.1	0.853	113.927	0	PA_without_intermediate	test	ward_and_allport	89	11.0	0.853	to_board	poldrack-single-stim	s615	False
113.933	0.1	0.922	114.855	0	PA_without_intermediate	test	ward_and_allport	82	11.0	0.922	to_hand	poldrack-single-stim	s615	False
114.855	0.1	0.482	115.337	0	PA_without_intermediate	test	ward_and_allport	71	11.0	0.482	to_board	poldrack-single-stim	s615	False
115.343	0.1	0.609	115.952	0	PA_without_intermediate	test	ward_and_allport	82	11.0	0.609	to_hand	poldrack-single-stim	s615	False
115.953	0.1	0.429	116.382	0	PA_without_intermediate	test	ward_and_allport	89	11.0	0.429	to_board	poldrack-single-stim	s615	False
116.389	1.0	2.408	116.388	0	PA_without_intermediate	test	ward_and_allport	-1	11.0	n/a	feedback	poldrack-single-stim	s615	False
118.802	1.768	1.768	120.57	1	PA_with_intermediate	test	ward_and_allport	89	12.0	1.768	to_hand	poldrack-single-stim	s615	False
120.572	0.1	0.87	121.442	0	PA_with_intermediate	test	ward_and_allport	82	12.0	0.87	to_board	poldrack-single-stim	s615	False
121.448	0.1	0.81	122.258	0	PA_with_intermediate	test	ward_and_allport	89	12.0	0.81	to_hand	poldrack-single-stim	s615	False
122.259	0.1	0.408	122.667	0	PA_with_intermediate	test	ward_and_allport	71	12.0	0.408	to_board	poldrack-single-stim	s615	False
122.672	0.1	0.706	123.378	0	PA_with_intermediate	test	ward_and_allport	82	12.0	0.706	to_hand	poldrack-single-stim	s615	False
123.379	0.1	0.383	123.762	0	PA_with_intermediate	test	ward_and_allport	89	12.0	0.383	to_board	poldrack-single-stim	s615	False
123.771	1.0	3.768	123.77	0	PA_with_intermediate	test	ward_and_allport	-1	12.0	n/a	feedback	poldrack-single-stim	s615	False
127.544	1.758	1.758	129.302	1	PA_with_intermediate	test	ward_and_allport	82	13.0	1.758	to_hand	poldrack-single-stim	s615	False
129.303	0.1	0.511	129.814	0	PA_with_intermediate	test	ward_and_allport	71	13.0	0.511	to_board	poldrack-single-stim	s615	False
129.819	0.1	0.709	130.528	0	PA_with_intermediate	test	ward_and_allport	82	13.0	0.709	to_hand	poldrack-single-stim	s615	False
130.53	0.1	0.451	130.981	0	PA_with_intermediate	test	ward_and_allport	89	13.0	0.451	to_board	poldrack-single-stim	s615	False
130.987	0.1	0.64	131.627	0	PA_with_intermediate	test	ward_and_allport	71	13.0	0.64	to_hand	poldrack-single-stim	s615	False
131.629	0.1	0.458	132.087	0	PA_with_intermediate	test	ward_and_allport	82	13.0	0.458	to_board	poldrack-single-stim	s615	False
132.096	1.0	2.68	132.095	0	PA_with_intermediate	test	ward_and_allport	-1	13.0	n/a	feedback	poldrack-single-stim	s615	False
134.782	2.513	2.513	137.295	1	PA_without_intermediate	test	ward_and_allport	82	14.0	2.513	to_hand	poldrack-single-stim	s615	False
137.296	0.1	0.505	137.801	0	PA_without_intermediate	test	ward_and_allport	71	14.0	0.505	to_board	poldrack-single-stim	s615	False
137.807	0.1	0.491	138.298	0	PA_without_intermediate	test	ward_and_allport	82	14.0	0.491	to_hand	poldrack-single-stim	s615	False
138.299	0.1	0.467	138.766	0	PA_without_intermediate	test	ward_and_allport	89	14.0	0.467	to_board	poldrack-single-stim	s615	False
138.772	0.1	0.514	139.286	0	PA_without_intermediate	test	ward_and_allport	82	14.0	0.514	to_hand	poldrack-single-stim	s615	False
139.288	0.1	0.464	139.752	0	PA_without_intermediate	test	ward_and_allport	71	14.0	0.464	to_board	poldrack-single-stim	s615	False
139.759	1.0	3.224	139.758	0	PA_without_intermediate	test	ward_and_allport	-1	14.0	n/a	feedback	poldrack-single-stim	s615	False
147.991	2.064	2.064	150.055	1	PA_without_intermediate	test	ward_and_allport	89	15.0	2.064	to_hand	poldrack-single-stim	s615	False
150.056	0.1	0.508	150.564	0	PA_without_intermediate	test	ward_and_allport	71	15.0	0.508	to_board	poldrack-single-stim	s615	False
150.571	0.1	0.414	150.985	0	PA_without_intermediate	test	ward_and_allport	89	15.0	0.414	to_hand	poldrack-single-stim	s615	False
150.985	0.1	0.489	151.474	0	PA_without_intermediate	test	ward_and_allport	71	15.0	0.489	to_board	poldrack-single-stim	s615	False
151.479	0.1	0.483	151.962	0	PA_without_intermediate	test	ward_and_allport	89	15.0	0.483	to_hand	poldrack-single-stim	s615	False
151.964	0.1	0.477	152.441	0	PA_without_intermediate	test	ward_and_allport	82	15.0	0.477	to_board	poldrack-single-stim	s615	False
152.447	1.0	3.36	152.446	0	PA_without_intermediate	test	ward_and_allport	-1	15.0	n/a	feedback	poldrack-single-stim	s615	False
155.812	1.545	1.545	157.357	1	PA_without_intermediate	test	ward_and_allport	82	16.0	1.545	to_hand	poldrack-single-stim	s615	False
157.358	0.1	0.409	157.767	0	PA_without_intermediate	test	ward_and_allport	71	16.0	0.409	to_board	poldrack-single-stim	s615	False
157.772	0.1	0.437	158.209	0	PA_without_intermediate	test	ward_and_allport	82	16.0	0.437	to_hand	poldrack-single-stim	s615	False
158.21	0.1	0.455	158.665	0	PA_without_intermediate	test	ward_and_allport	71	16.0	0.455	to_board	poldrack-single-stim	s615	False
158.67	0.1	0.375	159.045	0	PA_without_intermediate	test	ward_and_allport	82	16.0	0.375	to_hand	poldrack-single-stim	s615	False
159.046	0.1	0.421	159.467	0	PA_without_intermediate	test	ward_and_allport	89	16.0	0.421	to_board	poldrack-single-stim	s615	False
159.474	1.0	2.0	159.473	0	PA_without_intermediate	test	ward_and_allport	-1	16.0	n/a	feedback	poldrack-single-stim	s615	False
161.48	1.69	1.69	163.17	1	PA_without_intermediate	test	ward_and_allport	89	17.0	1.69	to_hand	poldrack-single-stim	s615	False
163.171	0.1	0.396	163.567	0	PA_without_intermediate	test	ward_and_allport	71	17.0	0.396	to_board	poldrack-single-stim	s615	False
163.573	0.1	0.761	164.334	0	PA_without_intermediate	test	ward_and_allport	89	17.0	0.761	to_hand	poldrack-single-stim	s615	False
164.335	0.1	0.368	164.703	0	PA_without_intermediate	test	ward_and_allport	82	17.0	0.368	to_board	poldrack-single-stim	s615	False
164.709	0.1	0.47	165.179	0	PA_without_intermediate	test	ward_and_allport	89	17.0	0.47	to_hand	poldrack-single-stim	s615	False
165.181	0.1	0.493	165.674	0	PA_without_intermediate	test	ward_and_allport	71	17.0	0.493	to_board	poldrack-single-stim	s615	False
165.682	1.0	2.408	165.681	0	PA_without_intermediate	test	ward_and_allport	-1	17.0	n/a	feedback	poldrack-single-stim	s615	False
168.095	1.557	1.557	169.652	1	PA_with_intermediate	test	ward_and_allport	89	18.0	1.557	to_hand	poldrack-single-stim	s615	False
169.654	0.1	0.534	170.188	0	PA_with_intermediate	test	ward_and_allport	71	18.0	0.534	to_board	poldrack-single-stim	s615	False
170.195	0.1	0.459	170.654	0	PA_with_intermediate	test	ward_and_allport	89	18.0	0.459	to_hand	poldrack-single-stim	s615	False
170.655	0.1	0.444	171.099	0	PA_with_intermediate	test	ward_and_allport	82	18.0	0.444	to_board	poldrack-single-stim	s615	False
171.105	0.1	0.781	171.886	0	PA_with_intermediate	test	ward_and_allport	71	18.0	0.781	to_hand	poldrack-single-stim	s615	False
171.888	0.1	0.385	172.273	0	PA_with_intermediate	test	ward_and_allport	89	18.0	0.385	to_board	poldrack-single-stim	s615	False
172.279	1.0	2.136	172.278	0	PA_with_intermediate	test	ward_and_allport	-1	18.0	n/a	feedback	poldrack-single-stim	s615	False
174.421	1.949	1.949	176.37	1	PA_without_intermediate	test	ward_and_allport	89	19.0	1.949	to_hand	poldrack-single-stim	s615	False
176.372	0.1	0.4	176.772	0	PA_without_intermediate	test	ward_and_allport	82	19.0	0.4	to_board	poldrack-single-stim	s615	False
176.779	0.1	0.965	177.744	0	PA_without_intermediate	test	ward_and_allport	89	19.0	0.965	to_hand	poldrack-single-stim	s615	False
177.744	0.1	0.559	178.303	0	PA_without_intermediate	test	ward_and_allport	82	19.0	0.559	to_board	poldrack-single-stim	s615	False
178.308	0.1	0.754	179.062	0	PA_without_intermediate	test	ward_and_allport	89	19.0	0.754	to_hand	poldrack-single-stim	s615	False
179.063	0.1	0.401	179.464	0	PA_without_intermediate	test	ward_and_allport	71	19.0	0.401	to_board	poldrack-single-stim	s615	False
179.474	1.0	5.128	179.473	0	PA_without_intermediate	test	ward_and_allport	-1	19.0	n/a	feedback	poldrack-single-stim	s615	False
184.608	1.515	1.515	186.123	1	PA_without_intermediate	test	ward_and_allport	71	20.0	1.515	to_hand	poldrack-single-stim	s615	False
186.124	0.1	0.354	186.478	0	PA_without_intermediate	test	ward_and_allport	89	20.0	0.354	to_board	poldrack-single-stim	s615	False
186.483	0.1	0.356	186.839	0	PA_without_intermediate	test	ward_and_allport	71	20.0	0.356	to_hand	poldrack-single-stim	s615	False
186.841	0.1	0.332	187.173	0	PA_without_intermediate	test	ward_and_allport	89	20.0	0.332	to_board	poldrack-single-stim	s615	False
187.179	0.1	0.434	187.613	0	PA_without_intermediate	test	ward_and_allport	71	20.0	0.434	to_hand	poldrack-single-stim	s615	False
187.614	0.1	0.38	187.994	0	PA_without_intermediate	test	ward_and_allport	82	20.0	0.38	to_board	poldrack-single-stim	s615	False
188.002	1.0	2.136	188.001	0	PA_without_intermediate	test	ward_and_allport	-1	20.0	n/a	feedback	poldrack-single-stim	s615	False
190.144	1.698	1.698	191.842	1	PA_without_intermediate	test	ward_and_allport	89	21.0	1.698	to_hand	poldrack-single-stim	s615	False
191.843	0.1	0.391	192.234	0	PA_without_intermediate	test	ward_and_allport	82	21.0	0.391	to_board	poldrack-single-stim	s615	False
192.241	0.1	0.47	192.711	0	PA_without_intermediate	test	ward_and_allport	89	21.0	0.47	to_hand	poldrack-single-stim	s615	False
192.712	0.1	0.467	193.179	0	PA_without_intermediate	test	ward_and_allport	82	21.0	0.467	to_board	poldrack-single-stim	s615	False
193.185	0.1	0.451	193.636	0	PA_without_intermediate	test	ward_and_allport	89	21.0	0.451	to_hand	poldrack-single-stim	s615	False
193.638	0.1	0.367	194.005	0	PA_without_intermediate	test	ward_and_allport	71	21.0	0.367	to_board	poldrack-single-stim	s615	False
194.012	1.0	5.264	194.011	0	PA_without_intermediate	test	ward_and_allport	-1	21.0	n/a	feedback	poldrack-single-stim	s615	False
199.282	2.353	2.353	201.635	1	PA_with_intermediate	test	ward_and_allport	71	22.0	2.353	to_hand	poldrack-single-stim	s615	False
201.635	0.1	0.414	202.049	0	PA_with_intermediate	test	ward_and_allport	82	22.0	0.414	to_board	poldrack-single-stim	s615	False
202.056	0.1	0.397	202.453	0	PA_with_intermediate	test	ward_and_allport	71	22.0	0.397	to_hand	poldrack-single-stim	s615	False
202.455	0.1	0.327	202.782	0	PA_with_intermediate	test	ward_and_allport	89	22.0	0.327	to_board	poldrack-single-stim	s615	False
202.789	0.1	0.32	203.109	0	PA_with_intermediate	test	ward_and_allport	71	22.0	0.32	to_hand	poldrack-single-stim	s615	False
203.11	0.1	0.99	204.1	0	PA_with_intermediate	test	ward_and_allport	71	22.0	0.99	to_board	poldrack-single-stim	s615	False
204.108	0.1	0.741	204.849	0	PA_with_intermediate	test	ward_and_allport	82	22.0	0.741	to_hand	poldrack-single-stim	s615	False
204.851	0.1	0.303	205.154	0	PA_with_intermediate	test	ward_and_allport	89	22.0	0.303	to_board	poldrack-single-stim	s615	False
205.165	1.0	4.04	205.164	0	PA_with_intermediate	test	ward_and_allport	-1	22.0	n/a	feedback	poldrack-single-stim	s615	False
209.212	2.591	2.591	211.803	1	PA_with_intermediate	test	ward_and_allport	89	23.0	2.591	to_hand	poldrack-single-stim	s615	False
211.804	0.1	0.352	212.156	0	PA_with_intermediate	test	ward_and_allport	71	23.0	0.352	to_board	poldrack-single-stim	s615	False
212.164	0.1	0.504	212.668	0	PA_with_intermediate	test	ward_and_allport	89	23.0	0.504	to_hand	poldrack-single-stim	s615	False
212.67	0.1	0.809	213.479	0	PA_with_intermediate	test	ward_and_allport	82	23.0	0.809	to_board	poldrack-single-stim	s615	False
213.487	0.1	0.383	213.87	0	PA_with_intermediate	test	ward_and_allport	71	23.0	0.383	to_hand	poldrack-single-stim	s615	False
213.871	0.1	0.362	214.233	0	PA_with_intermediate	test	ward_and_allport	82	23.0	0.362	to_board	poldrack-single-stim	s615	False
214.243	1.0	2.136	214.242	0	PA_with_intermediate	test	ward_and_allport	-1	23.0	n/a	feedback	poldrack-single-stim	s615	False
216.387	1.689	1.689	218.076	1	PA_with_intermediate	test	ward_and_allport	71	24.0	1.689	to_hand	poldrack-single-stim	s615	False
218.077	0.1	0.441	218.518	0	PA_with_intermediate	test	ward_and_allport	89	24.0	0.441	to_board	poldrack-single-stim	s615	False
218.526	0.1	0.397	218.923	0	PA_with_intermediate	test	ward_and_allport	71	24.0	0.397	to_hand	poldrack-single-stim	s615	False
218.924	0.1	0.396	219.32	0	PA_with_intermediate	test	ward_and_allport	82	24.0	0.396	to_board	poldrack-single-stim	s615	False
219.328	0.1	0.487	219.815	0	PA_with_intermediate	test	ward_and_allport	89	24.0	0.487	to_hand	poldrack-single-stim	s615	False
219.817	0.1	0.423	220.24	0	PA_with_intermediate	test	ward_and_allport	82	24.0	0.423	to_board	poldrack-single-stim	s615	False
220.249	1.0	2.408	220.248	0	PA_with_intermediate	test	ward_and_allport	-1	24.0	n/a	feedback	poldrack-single-stim	s615	False
222.665	1.17	1.17	223.835	1	PA_without_intermediate	test	ward_and_allport	89	25.0	1.17	to_hand	poldrack-single-stim	s615	False
223.836	0.1	0.432	224.268	0	PA_without_intermediate	test	ward_and_allport	82	25.0	0.432	to_board	poldrack-single-stim	s615	False
224.277	0.1	0.54	224.817	0	PA_without_intermediate	test	ward_and_allport	89	25.0	0.54	to_hand	poldrack-single-stim	s615	False
224.819	0.1	0.597	225.416	0	PA_without_intermediate	test	ward_and_allport	71	25.0	0.597	to_board	poldrack-single-stim	s615	False
225.424	0.1	0.457	225.881	0	PA_without_intermediate	test	ward_and_allport	89	25.0	0.457	to_hand	poldrack-single-stim	s615	False
225.882	0.1	0.394	226.276	0	PA_without_intermediate	test	ward_and_allport	82	25.0	0.394	to_board	poldrack-single-stim	s615	False
226.286	1.0	2.68	226.285	0	PA_without_intermediate	test	ward_and_allport	-1	25.0	n/a	feedback	poldrack-single-stim	s615	False
228.975	1.243	1.243	230.218	1	PA_with_intermediate	test	ward_and_allport	71	26.0	1.243	to_hand	poldrack-single-stim	s615	False
230.219	0.1	0.455	230.674	0	PA_with_intermediate	test	ward_and_allport	89	26.0	0.455	to_board	poldrack-single-stim	s615	False
230.683	0.1	0.346	231.029	0	PA_with_intermediate	test	ward_and_allport	71	26.0	0.346	to_hand	poldrack-single-stim	s615	False
231.031	0.1	0.394	231.425	0	PA_with_intermediate	test	ward_and_allport	82	26.0	0.394	to_board	poldrack-single-stim	s615	False
231.434	0.1	0.332	231.766	0	PA_with_intermediate	test	ward_and_allport	89	26.0	0.332	to_hand	poldrack-single-stim	s615	False
231.768	0.1	0.337	232.105	0	PA_with_intermediate	test	ward_and_allport	71	26.0	0.337	to_board	poldrack-single-stim	s615	False
232.116	1.0	4.72	232.115	0	PA_with_intermediate	test	ward_and_allport	-1	26.0	n/a	feedback	poldrack-single-stim	s615	False
236.843	1.648	1.648	238.491	1	PA_without_intermediate	test	ward_and_allport	71	27.0	1.648	to_hand	poldrack-single-stim	s615	False
238.492	0.1	0.345	238.837	0	PA_without_intermediate	test	ward_and_allport	89	27.0	0.345	to_board	poldrack-single-stim	s615	False
238.846	0.1	0.301	239.147	0	PA_without_intermediate	test	ward_and_allport	71	27.0	0.301	to_hand	poldrack-single-stim	s615	False
239.149	0.1	0.347	239.496	0	PA_without_intermediate	test	ward_and_allport	89	27.0	0.347	to_board	poldrack-single-stim	s615	False
239.503	0.1	0.411	239.914	0	PA_without_intermediate	test	ward_and_allport	71	27.0	0.411	to_hand	poldrack-single-stim	s615	False
239.915	0.1	0.382	240.297	0	PA_without_intermediate	test	ward_and_allport	82	27.0	0.382	to_board	poldrack-single-stim	s615	False
240.308	1.0	3.224	240.307	0	PA_without_intermediate	test	ward_and_allport	-1	27.0	n/a	feedback	poldrack-single-stim	s615	False
243.541	1.199	1.199	244.74	1	PA_without_intermediate	test	ward_and_allport	82	28.0	1.199	to_hand	poldrack-single-stim	s615	False
244.741	0.1	0.354	245.095	0	PA_without_intermediate	test	ward_and_allport	89	28.0	0.354	to_board	poldrack-single-stim	s615	False
245.103	0.1	0.359	245.462	0	PA_without_intermediate	test	ward_and_allport	82	28.0	0.359	to_hand	poldrack-single-stim	s615	False
245.463	0.1	0.354	245.817	0	PA_without_intermediate	test	ward_and_allport	89	28.0	0.354	to_board	poldrack-single-stim	s615	False
245.826	0.1	0.897	246.723	0	PA_without_intermediate	test	ward_and_allport	82	28.0	0.897	to_hand	poldrack-single-stim	s615	False
246.725	0.1	0.325	247.05	0	PA_without_intermediate	test	ward_and_allport	71	28.0	0.325	to_board	poldrack-single-stim	s615	False
247.062	1.0	2.272	247.061	0	PA_without_intermediate	test	ward_and_allport	-1	28.0	n/a	feedback	poldrack-single-stim	s615	False
249.343	1.671	1.671	251.014	1	PA_with_intermediate	test	ward_and_allport	89	29.0	1.671	to_hand	poldrack-single-stim	s615	False
251.016	0.1	0.382	251.398	0	PA_with_intermediate	test	ward_and_allport	71	29.0	0.382	to_board	poldrack-single-stim	s615	False
251.408	0.1	0.332	251.74	0	PA_with_intermediate	test	ward_and_allport	89	29.0	0.332	to_hand	poldrack-single-stim	s615	False
251.741	0.1	0.324	252.065	0	PA_with_intermediate	test	ward_and_allport	82	29.0	0.324	to_board	poldrack-single-stim	s615	False
252.074	0.1	0.406	252.48	0	PA_with_intermediate	test	ward_and_allport	71	29.0	0.406	to_hand	poldrack-single-stim	s615	False
252.481	0.1	0.345	252.826	0	PA_with_intermediate	test	ward_and_allport	89	29.0	0.345	to_board	poldrack-single-stim	s615	False
252.839	1.0	3.632	252.838	0	PA_with_intermediate	test	ward_and_allport	-1	29.0	n/a	feedback	poldrack-single-stim	s615	False
261.483	1.319	1.319	262.802	1	PA_without_intermediate	test	ward_and_allport	89	30.0	1.319	to_hand	poldrack-single-stim	s615	False
262.804	0.1	0.48	263.284	0	PA_without_intermediate	test	ward_and_allport	82	30.0	0.48	to_board	poldrack-single-stim	s615	False
263.293	0.1	0.394	263.687	0	PA_without_intermediate	test	ward_and_allport	89	30.0	0.394	to_hand	poldrack-single-stim	s615	False
263.689	0.1	0.333	264.022	0	PA_without_intermediate	test	ward_and_allport	71	30.0	0.333	to_board	poldrack-single-stim	s615	False
264.031	0.1	0.296	264.327	0	PA_without_intermediate	test	ward_and_allport	89	30.0	0.296	to_hand	poldrack-single-stim	s615	False
264.329	0.1	0.273	264.602	0	PA_without_intermediate	test	ward_and_allport	82	30.0	0.273	to_board	poldrack-single-stim	s615	False
264.613	1.0	2.408	264.612	0	PA_without_intermediate	test	ward_and_allport	-1	30.0	n/a	feedback	poldrack-single-stim	s615	False
267.03	1.404	1.404	268.434	1	PA_without_intermediate	test	ward_and_allport	71	31.0	1.404	to_hand	poldrack-single-stim	s615	False
268.434	0.1	0.437	268.871	0	PA_without_intermediate	test	ward_and_allport	89	31.0	0.437	to_board	poldrack-single-stim	s615	False
268.881	0.1	0.386	269.267	0	PA_without_intermediate	test	ward_and_allport	71	31.0	0.386	to_hand	poldrack-single-stim	s615	False
269.267	0.1	0.386	269.653	0	PA_without_intermediate	test	ward_and_allport	82	31.0	0.386	to_board	poldrack-single-stim	s615	False
269.662	0.1	0.397	270.059	0	PA_without_intermediate	test	ward_and_allport	71	31.0	0.397	to_hand	poldrack-single-stim	s615	False
270.06	0.1	0.337	270.397	0	PA_without_intermediate	test	ward_and_allport	89	31.0	0.337	to_board	poldrack-single-stim	s615	False
270.413	1.0	2.0	270.412	0	PA_without_intermediate	test	ward_and_allport	-1	31.0	n/a	feedback	poldrack-single-stim	s615	False
272.422	1.931	1.931	274.353	1	PA_with_intermediate	test	ward_and_allport	82	32.0	1.931	to_hand	poldrack-single-stim	s615	False
274.354	0.1	0.427	274.781	0	PA_with_intermediate	test	ward_and_allport	89	32.0	0.427	to_board	poldrack-single-stim	s615	False
274.789	0.1	1.065	275.854	0	PA_with_intermediate	test	ward_and_allport	82	32.0	1.065	to_hand	poldrack-single-stim	s615	False
275.855	0.1	0.78	276.635	0	PA_with_intermediate	test	ward_and_allport	71	32.0	0.78	to_board	poldrack-single-stim	s615	False
276.645	0.1	0.319	276.964	0	PA_with_intermediate	test	ward_and_allport	89	32.0	0.319	to_hand	poldrack-single-stim	s615	False
276.965	0.1	0.227	277.192	0	PA_with_intermediate	test	ward_and_allport	71	32.0	0.227	to_board	poldrack-single-stim	s615	False
277.202	1.0	2.0	277.201	0	PA_with_intermediate	test	ward_and_allport	-1	32.0	n/a	feedback	poldrack-single-stim	s615	False
279.21	1.732	1.732	280.942	1	PA_with_intermediate	test	ward_and_allport	71	33.0	1.732	to_hand	poldrack-single-stim	s615	False
280.943	0.1	0.419	281.362	0	PA_with_intermediate	test	ward_and_allport	89	33.0	0.419	to_board	poldrack-single-stim	s615	False
281.37	0.1	0.365	281.735	0	PA_with_intermediate	test	ward_and_allport	71	33.0	0.365	to_hand	poldrack-single-stim	s615	False
281.736	0.1	0.377	282.113	0	PA_with_intermediate	test	ward_and_allport	82	33.0	0.377	to_board	poldrack-single-stim	s615	False
282.121	0.1	0.499	282.62	0	PA_with_intermediate	test	ward_and_allport	89	33.0	0.499	to_hand	poldrack-single-stim	s615	False
282.622	0.1	0.442	283.064	0	PA_with_intermediate	test	ward_and_allport	82	33.0	0.442	to_board	poldrack-single-stim	s615	False
283.074	1.0	2.0	283.073	0	PA_with_intermediate	test	ward_and_allport	-1	33.0	n/a	feedback	poldrack-single-stim	s615	False
285.082	1.737	1.737	286.819	1	PA_with_intermediate	test	ward_and_allport	89	34.0	1.737	to_hand	poldrack-single-stim	s615	False
286.82	0.1	0.397	287.217	0	PA_with_intermediate	test	ward_and_allport	82	34.0	0.397	to_board	poldrack-single-stim	s615	False
287.224	0.1	0.536	287.76	0	PA_with_intermediate	test	ward_and_allport	89	34.0	0.536	to_hand	poldrack-single-stim	s615	False
287.761	0.1	0.491	288.252	0	PA_with_intermediate	test	ward_and_allport	71	34.0	0.491	to_board	poldrack-single-stim	s615	False
288.262	0.1	0.43	288.692	0	PA_with_intermediate	test	ward_and_allport	82	34.0	0.43	to_hand	poldrack-single-stim	s615	False
288.694	0.1	0.349	289.043	0	PA_with_intermediate	test	ward_and_allport	71	34.0	0.349	to_board	poldrack-single-stim	s615	False
289.056	1.0	2.408	289.055	0	PA_with_intermediate	test	ward_and_allport	-1	34.0	n/a	feedback	poldrack-single-stim	s615	False
291.474	1.394	1.394	292.868	1	PA_without_intermediate	test	ward_and_allport	82	35.0	1.394	to_hand	poldrack-single-stim	s615	False
292.87	0.1	0.673	293.543	0	PA_without_intermediate	test	ward_and_allport	71	35.0	0.673	to_board	poldrack-single-stim	s615	False
293.551	0.1	0.373	293.924	0	PA_without_intermediate	test	ward_and_allport	82	35.0	0.373	to_hand	poldrack-single-stim	s615	False
293.926	0.1	0.359	294.285	0	PA_without_intermediate	test	ward_and_allport	71	35.0	0.359	to_board	poldrack-single-stim	s615	False
294.292	0.1	0.388	294.68	0	PA_without_intermediate	test	ward_and_allport	82	35.0	0.388	to_hand	poldrack-single-stim	s615	False
294.681	0.1	0.299	294.98	0	PA_without_intermediate	test	ward_and_allport	89	35.0	0.299	to_board	poldrack-single-stim	s615	False
294.989	1.0	2.816	294.988	0	PA_without_intermediate	test	ward_and_allport	-1	35.0	n/a	feedback	poldrack-single-stim	s615	False
297.815	1.998	1.998	299.813	1	PA_with_intermediate	test	ward_and_allport	71	36.0	1.998	to_hand	poldrack-single-stim	s615	False
299.813	0.1	0.388	300.201	0	PA_with_intermediate	test	ward_and_allport	82	36.0	0.388	to_board	poldrack-single-stim	s615	False
300.211	0.1	0.317	300.528	0	PA_with_intermediate	test	ward_and_allport	71	36.0	0.317	to_hand	poldrack-single-stim	s615	False
300.53	0.1	0.373	300.903	0	PA_with_intermediate	test	ward_and_allport	89	36.0	0.373	to_board	poldrack-single-stim	s615	False
300.915	0.1	0.338	301.253	0	PA_with_intermediate	test	ward_and_allport	82	36.0	0.338	to_hand	poldrack-single-stim	s615	False
301.254	0.1	0.332	301.586	0	PA_with_intermediate	test	ward_and_allport	89	36.0	0.332	to_board	poldrack-single-stim	s615	False
301.598	1.0	4.176	301.597	0	PA_with_intermediate	test	ward_and_allport	-1	36.0	n/a	feedback	poldrack-single-stim	s615	False
305.781	1.333	1.333	307.114	1	PA_with_intermediate	test	ward_and_allport	71	37.0	1.333	to_hand	poldrack-single-stim	s615	False
307.116	0.1	0.355	307.471	0	PA_with_intermediate	test	ward_and_allport	89	37.0	0.355	to_board	poldrack-single-stim	s615	False
307.479	0.1	0.306	307.785	0	PA_with_intermediate	test	ward_and_allport	71	37.0	0.306	to_hand	poldrack-single-stim	s615	False
307.786	0.1	0.317	308.103	0	PA_with_intermediate	test	ward_and_allport	82	37.0	0.317	to_board	poldrack-single-stim	s615	False
308.114	0.1	0.27	308.384	0	PA_with_intermediate	test	ward_and_allport	89	37.0	0.27	to_hand	poldrack-single-stim	s615	False
308.384	0.1	0.242	308.626	0	PA_with_intermediate	test	ward_and_allport	71	37.0	0.242	to_board	poldrack-single-stim	s615	False
308.639	1.0	3.36	308.638	0	PA_with_intermediate	test	ward_and_allport	-1	37.0	n/a	feedback	poldrack-single-stim	s615	False
312.007	2.148	2.148	314.155	1	PA_with_intermediate	test	ward_and_allport	89	38.0	2.148	to_hand	poldrack-single-stim	s615	False
314.157	0.1	0.311	314.468	0	PA_with_intermediate	test	ward_and_allport	71	38.0	0.311	to_board	poldrack-single-stim	s615	False
314.476	0.1	0.34	314.816	0	PA_with_intermediate	test	ward_and_allport	89	38.0	0.34	to_hand	poldrack-single-stim	s615	False
314.817	0.1	0.304	315.121	0	PA_with_intermediate	test	ward_and_allport	82	38.0	0.304	to_board	poldrack-single-stim	s615	False
315.132	0.1	0.501	315.633	0	PA_with_intermediate	test	ward_and_allport	71	38.0	0.501	to_hand	poldrack-single-stim	s615	False
315.634	0.1	0.278	315.912	0	PA_with_intermediate	test	ward_and_allport	82	38.0	0.278	to_board	poldrack-single-stim	s615	False
315.924	1.0	2.0	315.923	0	PA_with_intermediate	test	ward_and_allport	-1	38.0	n/a	feedback	poldrack-single-stim	s615	False
317.933	1.469	1.469	319.402	1	PA_without_intermediate	test	ward_and_allport	82	39.0	1.469	to_hand	poldrack-single-stim	s615	False
319.404	0.1	0.424	319.828	0	PA_without_intermediate	test	ward_and_allport	89	39.0	0.424	to_board	poldrack-single-stim	s615	False
319.837	0.1	0.61	320.447	0	PA_without_intermediate	test	ward_and_allport	89	39.0	0.61	to_hand	poldrack-single-stim	s615	False
320.449	0.1	0.357	320.806	0	PA_without_intermediate	test	ward_and_allport	71	39.0	0.357	to_board	poldrack-single-stim	s615	False
320.814	0.1	0.561	321.375	0	PA_without_intermediate	test	ward_and_allport	82	39.0	0.561	to_hand	poldrack-single-stim	s615	False
321.377	0.1	0.632	322.009	0	PA_without_intermediate	test	ward_and_allport	89	39.0	0.632	to_board	poldrack-single-stim	s615	False
322.016	0.1	0.815	322.831	0	PA_without_intermediate	test	ward_and_allport	82	39.0	0.815	to_hand	poldrack-single-stim	s615	False
322.833	0.1	0.326	323.159	0	PA_without_intermediate	test	ward_and_allport	71	39.0	0.326	to_board	poldrack-single-stim	s615	False
323.169	1.0	2.408	323.168	0	PA_without_intermediate	test	ward_and_allport	-1	39.0	n/a	feedback	poldrack-single-stim	s615	False
325.585	1.702	1.702	327.287	1	PA_with_intermediate	test	ward_and_allport	82	40.0	1.702	to_hand	poldrack-single-stim	s615	False
327.288	0.1	0.374	327.662	0	PA_with_intermediate	test	ward_and_allport	89	40.0	0.374	to_board	poldrack-single-stim	s615	False
327.67	0.1	0.548	328.218	0	PA_with_intermediate	test	ward_and_allport	82	40.0	0.548	to_hand	poldrack-single-stim	s615	False
328.219	0.1	0.407	328.626	0	PA_with_intermediate	test	ward_and_allport	71	40.0	0.407	to_board	poldrack-single-stim	s615	False
328.636	0.1	0.426	329.062	0	PA_with_intermediate	test	ward_and_allport	89	40.0	0.426	to_hand	poldrack-single-stim	s615	False
329.064	0.1	0.302	329.366	0	PA_with_intermediate	test	ward_and_allport	71	40.0	0.302	to_board	poldrack-single-stim	s615	False
329.38	1.0	2.816	329.379	0	PA_with_intermediate	test	ward_and_allport	-1	40.0	n/a	feedback	poldrack-single-stim	s615	False
332.205	2.02	2.02	334.225	1	PA_without_intermediate	test	ward_and_allport	71	41.0	2.02	to_hand	poldrack-single-stim	s615	False
334.225	0.1	0.349	334.574	0	PA_without_intermediate	test	ward_and_allport	82	41.0	0.349	to_board	poldrack-single-stim	s615	False
334.584	0.1	0.316	334.9	0	PA_without_intermediate	test	ward_and_allport	71	41.0	0.316	to_hand	poldrack-single-stim	s615	False
334.9	0.1	0.34	335.24	0	PA_without_intermediate	test	ward_and_allport	89	41.0	0.34	to_board	poldrack-single-stim	s615	False
335.252	0.1	0.326	335.578	0	PA_without_intermediate	test	ward_and_allport	71	41.0	0.326	to_hand	poldrack-single-stim	s615	False
335.579	0.1	0.383	335.962	0	PA_without_intermediate	test	ward_and_allport	82	41.0	0.383	to_board	poldrack-single-stim	s615	False
335.973	1.0	3.088	335.972	0	PA_without_intermediate	test	ward_and_allport	-1	41.0	n/a	feedback	poldrack-single-stim	s615	False
339.07	1.883	1.883	340.953	1	PA_without_intermediate	test	ward_and_allport	82	42.0	1.883	to_hand	poldrack-single-stim	s615	False
340.954	0.1	0.398	341.352	0	PA_without_intermediate	test	ward_and_allport	89	42.0	0.398	to_board	poldrack-single-stim	s615	False
341.361	0.1	0.337	341.698	0	PA_without_intermediate	test	ward_and_allport	82	42.0	0.337	to_hand	poldrack-single-stim	s615	False
341.699	0.1	0.327	342.026	0	PA_without_intermediate	test	ward_and_allport	89	42.0	0.327	to_board	poldrack-single-stim	s615	False
342.038	0.1	0.786	342.824	0	PA_without_intermediate	test	ward_and_allport	82	42.0	0.786	to_hand	poldrack-single-stim	s615	False
342.825	0.1	0.234	343.059	0	PA_without_intermediate	test	ward_and_allport	71	42.0	0.234	to_board	poldrack-single-stim	s615	False
343.073	1.0	2.136	343.072	0	PA_without_intermediate	test	ward_and_allport	-1	42.0	n/a	feedback	poldrack-single-stim	s615	False
345.22	2.013	2.013	347.233	1	PA_without_intermediate	test	ward_and_allport	71	43.0	2.013	to_hand	poldrack-single-stim	s615	False
347.235	0.1	0.361	347.596	0	PA_without_intermediate	test	ward_and_allport	82	43.0	0.361	to_board	poldrack-single-stim	s615	False
347.606	0.1	0.295	347.901	0	PA_without_intermediate	test	ward_and_allport	71	43.0	0.295	to_hand	poldrack-single-stim	s615	False
347.902	0.1	0.369	348.271	0	PA_without_intermediate	test	ward_and_allport	89	43.0	0.369	to_board	poldrack-single-stim	s615	False
348.281	0.1	0.286	348.567	0	PA_without_intermediate	test	ward_and_allport	71	43.0	0.286	to_hand	poldrack-single-stim	s615	False
348.568	0.1	0.318	348.886	0	PA_without_intermediate	test	ward_and_allport	82	43.0	0.318	to_board	poldrack-single-stim	s615	False
348.896	1.0	7.168	348.895	0	PA_without_intermediate	test	ward_and_allport	-1	43.0	n/a	feedback	poldrack-single-stim	s615	False
356.075	2.172	2.172	358.247	1	PA_without_intermediate	test	ward_and_allport	89	44.0	2.172	to_hand	poldrack-single-stim	s615	False
358.247	0.1	0.305	358.552	0	PA_without_intermediate	test	ward_and_allport	71	44.0	0.305	to_board	poldrack-single-stim	s615	False
358.563	0.1	0.296	358.859	0	PA_without_intermediate	test	ward_and_allport	89	44.0	0.296	to_hand	poldrack-single-stim	s615	False
358.86	0.1	0.271	359.131	0	PA_without_intermediate	test	ward_and_allport	71	44.0	0.271	to_board	poldrack-single-stim	s615	False
359.143	0.1	0.271	359.414	0	PA_without_intermediate	test	ward_and_allport	89	44.0	0.271	to_hand	poldrack-single-stim	s615	False
359.416	0.1	0.272	359.688	0	PA_without_intermediate	test	ward_and_allport	82	44.0	0.272	to_board	poldrack-single-stim	s615	False
359.706	1.0	2.816	359.705	0	PA_without_intermediate	test	ward_and_allport	-1	44.0	n/a	feedback	poldrack-single-stim	s615	False
367.538	1.87	1.87	369.408	1	PA_with_intermediate	test	ward_and_allport	82	45.0	1.87	to_hand	poldrack-single-stim	s615	False
369.409	0.1	0.366	369.775	0	PA_with_intermediate	test	ward_and_allport	89	45.0	0.366	to_board	poldrack-single-stim	s615	False
369.788	0.1	0.693	370.481	0	PA_with_intermediate	test	ward_and_allport	89	45.0	0.693	to_hand	poldrack-single-stim	s615	False
370.482	0.1	0.366	370.848	0	PA_with_intermediate	test	ward_and_allport	71	45.0	0.366	to_board	poldrack-single-stim	s615	False
370.862	0.1	0.403	371.265	0	PA_with_intermediate	test	ward_and_allport	82	45.0	0.403	to_hand	poldrack-single-stim	s615	False
371.266	0.1	0.293	371.559	0	PA_with_intermediate	test	ward_and_allport	89	45.0	0.293	to_board	poldrack-single-stim	s615	False
371.573	0.1	0.594	372.167	0	PA_with_intermediate	test	ward_and_allport	71	45.0	0.594	to_hand	poldrack-single-stim	s615	False
372.168	0.1	0.344	372.512	0	PA_with_intermediate	test	ward_and_allport	82	45.0	0.344	to_board	poldrack-single-stim	s615	False
372.526	1.0	2.952	372.525	0	PA_with_intermediate	test	ward_and_allport	-1	45.0	n/a	feedback	poldrack-single-stim	s615	False
375.488	1.986	1.986	377.474	1	PA_with_intermediate	test	ward_and_allport	82	46.0	1.986	to_hand	poldrack-single-stim	s615	False
377.475	0.1	0.428	377.903	0	PA_with_intermediate	test	ward_and_allport	71	46.0	0.428	to_board	poldrack-single-stim	s615	False
377.913	0.1	0.341	378.254	0	PA_with_intermediate	test	ward_and_allport	82	46.0	0.341	to_hand	poldrack-single-stim	s615	False
378.255	0.1	0.377	378.632	0	PA_with_intermediate	test	ward_and_allport	89	46.0	0.377	to_board	poldrack-single-stim	s615	False
378.645	0.1	0.293	378.938	0	PA_with_intermediate	test	ward_and_allport	71	46.0	0.293	to_hand	poldrack-single-stim	s615	False
378.939	0.1	0.341	379.28	0	PA_with_intermediate	test	ward_and_allport	89	46.0	0.341	to_board	poldrack-single-stim	s615	False
379.294	1.0	2.136	379.293	0	PA_with_intermediate	test	ward_and_allport	-1	46.0	n/a	feedback	poldrack-single-stim	s615	False
381.443	1.61	1.61	383.053	1	PA_without_intermediate	test	ward_and_allport	89	47.0	1.61	to_hand	poldrack-single-stim	s615	False
383.055	0.1	0.266	383.321	0	PA_without_intermediate	test	ward_and_allport	71	47.0	0.266	to_board	poldrack-single-stim	s615	False
383.335	0.1	0.307	383.642	0	PA_without_intermediate	test	ward_and_allport	89	47.0	0.307	to_hand	poldrack-single-stim	s615	False
383.643	0.1	0.659	384.302	0	PA_without_intermediate	test	ward_and_allport	82	47.0	0.659	to_board	poldrack-single-stim	s615	False
384.314	0.1	0.373	384.687	0	PA_without_intermediate	test	ward_and_allport	89	47.0	0.373	to_hand	poldrack-single-stim	s615	False
384.688	0.1	0.284	384.972	0	PA_without_intermediate	test	ward_and_allport	71	47.0	0.284	to_board	poldrack-single-stim	s615	False
384.985	1.0	2.68	384.984	0	PA_without_intermediate	test	ward_and_allport	-1	47.0	n/a	feedback	poldrack-single-stim	s615	False
