onset	duration	block_duration	movement_onset	planning	condition	exp_stage	experiment_exp_id	key_press	problem_id	response_time	trial_id	trial_type	worker_id	junk
3.013	5.112	5.112	8.125	1	UA_with_intermediate	practice	ward_and_allport	71	0.0	5.112	to_hand	poldrack-single-stim	s595	False
8.127	0.1	0.604	8.731	0	UA_with_intermediate	practice	ward_and_allport	82	0.0	0.604	to_board	poldrack-single-stim	s595	False
8.734	0.1	0.902	9.636	0	UA_with_intermediate	practice	ward_and_allport	71	0.0	0.902	to_hand	poldrack-single-stim	s595	False
9.638	0.1	0.447	10.085	0	UA_with_intermediate	practice	ward_and_allport	89	0.0	0.447	to_board	poldrack-single-stim	s595	False
10.087	0.1	0.437	10.524	0	UA_with_intermediate	practice	ward_and_allport	82	0.0	0.437	to_hand	poldrack-single-stim	s595	False
10.525	0.1	0.454	10.979	0	UA_with_intermediate	practice	ward_and_allport	89	0.0	0.454	to_board	poldrack-single-stim	s595	False
10.986	1.0	2.5	10.985	0	UA_with_intermediate	practice	ward_and_allport	-1	0.0	n/a	feedback	poldrack-single-stim	s595	False
13.489	3.823	3.823	17.312	1	UA_with_intermediate	practice	ward_and_allport	89	1.0	3.823	to_hand	poldrack-single-stim	s595	False
17.312	0.1	0.435	17.747	0	UA_with_intermediate	practice	ward_and_allport	82	1.0	0.435	to_board	poldrack-single-stim	s595	False
17.749	0.1	0.406	18.155	0	UA_with_intermediate	practice	ward_and_allport	71	1.0	0.406	to_hand	poldrack-single-stim	s595	False
18.156	0.1	0.347	18.503	0	UA_with_intermediate	practice	ward_and_allport	89	1.0	0.347	to_board	poldrack-single-stim	s595	False
18.505	0.1	0.437	18.942	0	UA_with_intermediate	practice	ward_and_allport	82	1.0	0.437	to_hand	poldrack-single-stim	s595	False
18.943	0.1	0.331	19.274	0	UA_with_intermediate	practice	ward_and_allport	89	1.0	0.331	to_board	poldrack-single-stim	s595	False
19.28	1.0	2.1	19.279	0	UA_with_intermediate	practice	ward_and_allport	-1	1.0	n/a	feedback	poldrack-single-stim	s595	False
21.382	2.685	2.685	24.067	1	UA_without_intermediate	practice	ward_and_allport	82	2.0	2.685	to_hand	poldrack-single-stim	s595	False
24.068	0.1	0.362	24.43	0	UA_without_intermediate	practice	ward_and_allport	89	2.0	0.362	to_board	poldrack-single-stim	s595	False
24.432	0.1	0.888	25.32	0	UA_without_intermediate	practice	ward_and_allport	71	2.0	0.888	to_hand	poldrack-single-stim	s595	False
25.321	0.1	0.31	25.631	0	UA_without_intermediate	practice	ward_and_allport	89	2.0	0.31	to_board	poldrack-single-stim	s595	False
25.634	0.1	0.488	26.122	0	UA_without_intermediate	practice	ward_and_allport	71	2.0	0.488	to_hand	poldrack-single-stim	s595	False
26.124	0.1	0.297	26.421	0	UA_without_intermediate	practice	ward_and_allport	89	2.0	0.297	to_board	poldrack-single-stim	s595	False
26.428	1.0	2.2	26.427	0	UA_without_intermediate	practice	ward_and_allport	-1	2.0	n/a	feedback	poldrack-single-stim	s595	False
28.63	4.126	4.126	32.756	1	UA_without_intermediate	practice	ward_and_allport	71	3.0	4.126	to_hand	poldrack-single-stim	s595	False
32.758	0.1	0.311	33.069	0	UA_without_intermediate	practice	ward_and_allport	89	3.0	0.311	to_board	poldrack-single-stim	s595	False
33.071	0.1	0.492	33.563	0	UA_without_intermediate	practice	ward_and_allport	82	3.0	0.492	to_hand	poldrack-single-stim	s595	False
33.564	0.1	0.482	34.046	0	UA_without_intermediate	practice	ward_and_allport	89	3.0	0.482	to_board	poldrack-single-stim	s595	False
34.048	0.1	0.38	34.428	0	UA_without_intermediate	practice	ward_and_allport	71	3.0	0.38	to_hand	poldrack-single-stim	s595	False
34.429	0.1	0.368	34.797	0	UA_without_intermediate	practice	ward_and_allport	89	3.0	0.368	to_board	poldrack-single-stim	s595	False
34.804	1.0	2.0	34.803	0	UA_without_intermediate	practice	ward_and_allport	-1	3.0	n/a	feedback	poldrack-single-stim	s595	False
38.81	5.155	5.155	43.965	1	PA_with_intermediate	test	ward_and_allport	71	0.0	5.155	to_hand	poldrack-single-stim	s595	False
43.966	0.1	0.298	44.264	0	PA_with_intermediate	test	ward_and_allport	89	0.0	0.298	to_board	poldrack-single-stim	s595	False
44.266	0.1	0.619	44.885	0	PA_with_intermediate	test	ward_and_allport	71	0.0	0.619	to_hand	poldrack-single-stim	s595	False
44.887	0.1	0.287	45.174	0	PA_with_intermediate	test	ward_and_allport	82	0.0	0.287	to_board	poldrack-single-stim	s595	False
45.176	0.1	0.401	45.577	0	PA_with_intermediate	test	ward_and_allport	89	0.0	0.401	to_hand	poldrack-single-stim	s595	False
45.578	0.1	0.401	45.979	0	PA_with_intermediate	test	ward_and_allport	82	0.0	0.401	to_board	poldrack-single-stim	s595	False
45.986	1.0	3.768	45.985	0	PA_with_intermediate	test	ward_and_allport	-1	0.0	n/a	feedback	poldrack-single-stim	s595	False
49.757	4.274	4.274	54.031	1	PA_with_intermediate	test	ward_and_allport	71	1.0	4.274	to_hand	poldrack-single-stim	s595	False
54.033	0.1	0.357	54.39	0	PA_with_intermediate	test	ward_and_allport	82	1.0	0.357	to_board	poldrack-single-stim	s595	False
54.393	0.1	0.382	54.775	0	PA_with_intermediate	test	ward_and_allport	71	1.0	0.382	to_hand	poldrack-single-stim	s595	False
54.776	0.1	0.331	55.107	0	PA_with_intermediate	test	ward_and_allport	89	1.0	0.331	to_board	poldrack-single-stim	s595	False
55.11	0.1	0.425	55.535	0	PA_with_intermediate	test	ward_and_allport	82	1.0	0.425	to_hand	poldrack-single-stim	s595	False
55.537	0.1	0.395	55.932	0	PA_with_intermediate	test	ward_and_allport	71	1.0	0.395	to_board	poldrack-single-stim	s595	False
55.938	1.0	2.68	55.937	0	PA_with_intermediate	test	ward_and_allport	-1	1.0	n/a	feedback	poldrack-single-stim	s595	False
58.621	4.084	4.084	62.705	1	PA_without_intermediate	test	ward_and_allport	71	2.0	4.084	to_hand	poldrack-single-stim	s595	False
62.707	0.1	0.318	63.025	0	PA_without_intermediate	test	ward_and_allport	82	2.0	0.318	to_board	poldrack-single-stim	s595	False
63.029	0.1	0.356	63.385	0	PA_without_intermediate	test	ward_and_allport	71	2.0	0.356	to_hand	poldrack-single-stim	s595	False
63.385	0.1	0.325	63.71	0	PA_without_intermediate	test	ward_and_allport	89	2.0	0.325	to_board	poldrack-single-stim	s595	False
63.714	0.1	0.411	64.125	0	PA_without_intermediate	test	ward_and_allport	71	2.0	0.411	to_hand	poldrack-single-stim	s595	False
64.126	0.1	0.392	64.518	0	PA_without_intermediate	test	ward_and_allport	82	2.0	0.392	to_board	poldrack-single-stim	s595	False
64.526	1.0	3.224	64.525	0	PA_without_intermediate	test	ward_and_allport	-1	2.0	n/a	feedback	poldrack-single-stim	s595	False
67.752	5.284	5.284	73.036	1	PA_without_intermediate	test	ward_and_allport	89	3.0	5.284	to_hand	poldrack-single-stim	s595	False
73.036	0.1	0.337	73.373	0	PA_without_intermediate	test	ward_and_allport	71	3.0	0.337	to_board	poldrack-single-stim	s595	False
73.376	0.1	1.215	74.591	0	PA_without_intermediate	test	ward_and_allport	89	3.0	1.215	to_hand	poldrack-single-stim	s595	False
74.592	0.1	0.388	74.98	0	PA_without_intermediate	test	ward_and_allport	82	3.0	0.388	to_board	poldrack-single-stim	s595	False
74.983	0.1	0.755	75.738	0	PA_without_intermediate	test	ward_and_allport	89	3.0	0.755	to_hand	poldrack-single-stim	s595	False
75.739	0.1	0.391	76.13	0	PA_without_intermediate	test	ward_and_allport	71	3.0	0.391	to_board	poldrack-single-stim	s595	False
76.134	1.0	3.36	76.133	0	PA_without_intermediate	test	ward_and_allport	-1	3.0	n/a	feedback	poldrack-single-stim	s595	False
79.497	3.905	3.905	83.402	1	PA_without_intermediate	test	ward_and_allport	89	4.0	3.905	to_hand	poldrack-single-stim	s595	False
83.404	0.1	0.334	83.738	0	PA_without_intermediate	test	ward_and_allport	82	4.0	0.334	to_board	poldrack-single-stim	s595	False
83.741	0.1	0.563	84.304	0	PA_without_intermediate	test	ward_and_allport	89	4.0	0.563	to_hand	poldrack-single-stim	s595	False
84.306	0.1	0.71	85.016	0	PA_without_intermediate	test	ward_and_allport	82	4.0	0.71	to_board	poldrack-single-stim	s595	False
85.019	0.1	0.786	85.805	0	PA_without_intermediate	test	ward_and_allport	89	4.0	0.786	to_hand	poldrack-single-stim	s595	False
85.807	0.1	0.435	86.242	0	PA_without_intermediate	test	ward_and_allport	71	4.0	0.435	to_board	poldrack-single-stim	s595	False
86.246	1.0	2.0	86.245	0	PA_without_intermediate	test	ward_and_allport	-1	4.0	n/a	feedback	poldrack-single-stim	s595	False
88.25	2.16	2.16	90.41	1	PA_without_intermediate	test	ward_and_allport	82	5.0	2.16	to_hand	poldrack-single-stim	s595	False
90.411	0.1	0.365	90.776	0	PA_without_intermediate	test	ward_and_allport	89	5.0	0.365	to_board	poldrack-single-stim	s595	False
90.78	0.1	0.958	91.738	0	PA_without_intermediate	test	ward_and_allport	82	5.0	0.958	to_hand	poldrack-single-stim	s595	False
91.739	0.1	0.417	92.156	0	PA_without_intermediate	test	ward_and_allport	89	5.0	0.417	to_board	poldrack-single-stim	s595	False
92.159	0.1	0.805	92.964	0	PA_without_intermediate	test	ward_and_allport	82	5.0	0.805	to_hand	poldrack-single-stim	s595	False
92.965	0.1	0.347	93.312	0	PA_without_intermediate	test	ward_and_allport	71	5.0	0.347	to_board	poldrack-single-stim	s595	False
93.317	1.0	2.408	93.316	0	PA_without_intermediate	test	ward_and_allport	-1	5.0	n/a	feedback	poldrack-single-stim	s595	False
95.728	3.679	3.679	99.407	1	PA_with_intermediate	test	ward_and_allport	71	6.0	3.679	to_hand	poldrack-single-stim	s595	False
99.408	0.1	0.405	99.813	0	PA_with_intermediate	test	ward_and_allport	89	6.0	0.405	to_board	poldrack-single-stim	s595	False
99.817	0.1	0.677	100.494	0	PA_with_intermediate	test	ward_and_allport	71	6.0	0.677	to_hand	poldrack-single-stim	s595	False
100.495	0.1	0.322	100.817	0	PA_with_intermediate	test	ward_and_allport	82	6.0	0.322	to_board	poldrack-single-stim	s595	False
100.82	0.1	2.191	103.011	0	PA_with_intermediate	test	ward_and_allport	89	6.0	2.191	to_hand	poldrack-single-stim	s595	False
103.013	0.1	0.431	103.444	0	PA_with_intermediate	test	ward_and_allport	71	6.0	0.431	to_board	poldrack-single-stim	s595	False
103.449	1.0	2.136	103.448	0	PA_with_intermediate	test	ward_and_allport	-1	6.0	n/a	feedback	poldrack-single-stim	s595	False
105.589	4.694	4.694	110.283	1	PA_without_intermediate	test	ward_and_allport	82	7.0	4.694	to_hand	poldrack-single-stim	s595	False
110.285	0.1	0.584	110.869	0	PA_without_intermediate	test	ward_and_allport	71	7.0	0.584	to_board	poldrack-single-stim	s595	False
110.873	0.1	1.511	112.384	0	PA_without_intermediate	test	ward_and_allport	82	7.0	1.511	to_hand	poldrack-single-stim	s595	False
112.386	0.1	0.426	112.812	0	PA_without_intermediate	test	ward_and_allport	89	7.0	0.426	to_board	poldrack-single-stim	s595	False
112.816	0.1	1.232	114.048	0	PA_without_intermediate	test	ward_and_allport	82	7.0	1.232	to_hand	poldrack-single-stim	s595	False
114.049	0.1	0.419	114.468	0	PA_without_intermediate	test	ward_and_allport	71	7.0	0.419	to_board	poldrack-single-stim	s595	False
114.474	1.0	5.128	114.473	0	PA_without_intermediate	test	ward_and_allport	-1	7.0	n/a	feedback	poldrack-single-stim	s595	False
119.606	3.699	3.699	123.305	1	PA_without_intermediate	test	ward_and_allport	89	8.0	3.699	to_hand	poldrack-single-stim	s595	False
123.306	0.1	0.438	123.744	0	PA_without_intermediate	test	ward_and_allport	82	8.0	0.438	to_board	poldrack-single-stim	s595	False
123.748	0.1	1.077	124.825	0	PA_without_intermediate	test	ward_and_allport	89	8.0	1.077	to_hand	poldrack-single-stim	s595	False
124.826	0.1	0.314	125.14	0	PA_without_intermediate	test	ward_and_allport	71	8.0	0.314	to_board	poldrack-single-stim	s595	False
125.144	0.1	0.612	125.756	0	PA_without_intermediate	test	ward_and_allport	89	8.0	0.612	to_hand	poldrack-single-stim	s595	False
125.758	0.1	0.392	126.15	0	PA_without_intermediate	test	ward_and_allport	82	8.0	0.392	to_board	poldrack-single-stim	s595	False
126.155	1.0	2.136	126.154	0	PA_without_intermediate	test	ward_and_allport	-1	8.0	n/a	feedback	poldrack-single-stim	s595	False
128.295	2.133	2.133	130.428	1	PA_without_intermediate	test	ward_and_allport	71	9.0	2.133	to_hand	poldrack-single-stim	s595	False
130.43	0.1	0.335	130.765	0	PA_without_intermediate	test	ward_and_allport	82	9.0	0.335	to_board	poldrack-single-stim	s595	False
130.769	0.1	0.96	131.729	0	PA_without_intermediate	test	ward_and_allport	71	9.0	0.96	to_hand	poldrack-single-stim	s595	False
131.73	0.1	0.354	132.084	0	PA_without_intermediate	test	ward_and_allport	82	9.0	0.354	to_board	poldrack-single-stim	s595	False
132.088	0.1	0.836	132.924	0	PA_without_intermediate	test	ward_and_allport	71	9.0	0.836	to_hand	poldrack-single-stim	s595	False
132.925	0.1	0.289	133.214	0	PA_without_intermediate	test	ward_and_allport	89	9.0	0.289	to_board	poldrack-single-stim	s595	False
133.219	1.0	5.264	133.218	0	PA_without_intermediate	test	ward_and_allport	-1	9.0	n/a	feedback	poldrack-single-stim	s595	False
138.486	3.547	3.547	142.033	1	PA_with_intermediate	test	ward_and_allport	82	10.0	3.547	to_hand	poldrack-single-stim	s595	False
142.034	0.1	0.366	142.4	0	PA_with_intermediate	test	ward_and_allport	71	10.0	0.366	to_board	poldrack-single-stim	s595	False
142.405	0.1	0.658	143.063	0	PA_with_intermediate	test	ward_and_allport	82	10.0	0.658	to_hand	poldrack-single-stim	s595	False
143.065	0.1	0.36	143.425	0	PA_with_intermediate	test	ward_and_allport	89	10.0	0.36	to_board	poldrack-single-stim	s595	False
143.429	0.1	0.972	144.401	0	PA_with_intermediate	test	ward_and_allport	71	10.0	0.972	to_hand	poldrack-single-stim	s595	False
144.402	0.1	0.328	144.73	0	PA_with_intermediate	test	ward_and_allport	82	10.0	0.328	to_board	poldrack-single-stim	s595	False
144.737	1.0	4.04	144.736	0	PA_with_intermediate	test	ward_and_allport	-1	10.0	n/a	feedback	poldrack-single-stim	s595	False
148.781	4.202	4.202	152.983	1	PA_with_intermediate	test	ward_and_allport	82	11.0	4.202	to_hand	poldrack-single-stim	s595	False
152.986	0.1	0.423	153.409	0	PA_with_intermediate	test	ward_and_allport	89	11.0	0.423	to_board	poldrack-single-stim	s595	False
153.416	0.1	0.861	154.277	0	PA_with_intermediate	test	ward_and_allport	82	11.0	0.861	to_hand	poldrack-single-stim	s595	False
154.278	0.1	0.386	154.664	0	PA_with_intermediate	test	ward_and_allport	71	11.0	0.386	to_board	poldrack-single-stim	s595	False
154.669	0.1	0.478	155.147	0	PA_with_intermediate	test	ward_and_allport	89	11.0	0.478	to_hand	poldrack-single-stim	s595	False
155.148	0.1	0.336	155.484	0	PA_with_intermediate	test	ward_and_allport	71	11.0	0.336	to_board	poldrack-single-stim	s595	False
155.49	1.0	2.136	155.489	0	PA_with_intermediate	test	ward_and_allport	-1	11.0	n/a	feedback	poldrack-single-stim	s595	False
157.631	2.901	2.901	160.532	1	PA_with_intermediate	test	ward_and_allport	82	12.0	2.901	to_hand	poldrack-single-stim	s595	False
160.533	0.1	0.289	160.822	0	PA_with_intermediate	test	ward_and_allport	89	12.0	0.289	to_board	poldrack-single-stim	s595	False
160.827	0.1	0.6	161.427	0	PA_with_intermediate	test	ward_and_allport	82	12.0	0.6	to_hand	poldrack-single-stim	s595	False
161.429	0.1	0.379	161.808	0	PA_with_intermediate	test	ward_and_allport	71	12.0	0.379	to_board	poldrack-single-stim	s595	False
161.814	0.1	0.37	162.184	0	PA_with_intermediate	test	ward_and_allport	89	12.0	0.37	to_hand	poldrack-single-stim	s595	False
162.186	0.1	0.403	162.589	0	PA_with_intermediate	test	ward_and_allport	71	12.0	0.403	to_board	poldrack-single-stim	s595	False
162.599	1.0	2.408	162.598	0	PA_with_intermediate	test	ward_and_allport	-1	12.0	n/a	feedback	poldrack-single-stim	s595	False
165.012	2.954	2.954	167.966	1	PA_without_intermediate	test	ward_and_allport	89	13.0	2.954	to_hand	poldrack-single-stim	s595	False
167.967	0.1	0.349	168.316	0	PA_without_intermediate	test	ward_and_allport	82	13.0	0.349	to_board	poldrack-single-stim	s595	False
168.321	0.1	0.99	169.311	0	PA_without_intermediate	test	ward_and_allport	89	13.0	0.99	to_hand	poldrack-single-stim	s595	False
169.313	0.1	0.654	169.967	0	PA_without_intermediate	test	ward_and_allport	82	13.0	0.654	to_board	poldrack-single-stim	s595	False
169.971	0.1	0.548	170.519	0	PA_without_intermediate	test	ward_and_allport	89	13.0	0.548	to_hand	poldrack-single-stim	s595	False
170.522	0.1	0.304	170.826	0	PA_without_intermediate	test	ward_and_allport	71	13.0	0.304	to_board	poldrack-single-stim	s595	False
170.834	1.0	2.68	170.833	0	PA_without_intermediate	test	ward_and_allport	-1	13.0	n/a	feedback	poldrack-single-stim	s595	False
173.519	3.811	3.811	177.33	1	PA_with_intermediate	test	ward_and_allport	71	14.0	3.811	to_hand	poldrack-single-stim	s595	False
177.332	0.1	0.297	177.629	0	PA_with_intermediate	test	ward_and_allport	82	14.0	0.297	to_board	poldrack-single-stim	s595	False
177.634	0.1	0.518	178.152	0	PA_with_intermediate	test	ward_and_allport	71	14.0	0.518	to_hand	poldrack-single-stim	s595	False
178.153	0.1	0.497	178.65	0	PA_with_intermediate	test	ward_and_allport	89	14.0	0.497	to_board	poldrack-single-stim	s595	False
178.655	0.1	0.554	179.209	0	PA_with_intermediate	test	ward_and_allport	82	14.0	0.554	to_hand	poldrack-single-stim	s595	False
179.21	0.1	0.404	179.614	0	PA_with_intermediate	test	ward_and_allport	89	14.0	0.404	to_board	poldrack-single-stim	s595	False
179.621	1.0	4.72	179.62	0	PA_with_intermediate	test	ward_and_allport	-1	14.0	n/a	feedback	poldrack-single-stim	s595	False
189.35	6.22	6.22	195.57	1	PA_without_intermediate	test	ward_and_allport	82	15.0	6.22	to_hand	poldrack-single-stim	s595	False
195.57	0.1	0.326	195.896	0	PA_without_intermediate	test	ward_and_allport	71	15.0	0.326	to_board	poldrack-single-stim	s595	False
195.902	0.1	0.364	196.266	0	PA_without_intermediate	test	ward_and_allport	82	15.0	0.364	to_hand	poldrack-single-stim	s595	False
196.268	0.1	0.415	196.683	0	PA_without_intermediate	test	ward_and_allport	89	15.0	0.415	to_board	poldrack-single-stim	s595	False
196.688	0.1	0.501	197.189	0	PA_without_intermediate	test	ward_and_allport	82	15.0	0.501	to_hand	poldrack-single-stim	s595	False
197.19	0.1	0.371	197.561	0	PA_without_intermediate	test	ward_and_allport	71	15.0	0.371	to_board	poldrack-single-stim	s595	False
197.568	1.0	3.224	197.567	0	PA_without_intermediate	test	ward_and_allport	-1	15.0	n/a	feedback	poldrack-single-stim	s595	False
200.798	4.049	4.049	204.847	1	PA_without_intermediate	test	ward_and_allport	82	16.0	4.049	to_hand	poldrack-single-stim	s595	False
204.848	0.1	0.313	205.161	0	PA_without_intermediate	test	ward_and_allport	71	16.0	0.313	to_board	poldrack-single-stim	s595	False
205.167	0.1	0.371	205.538	0	PA_without_intermediate	test	ward_and_allport	82	16.0	0.371	to_hand	poldrack-single-stim	s595	False
205.539	0.1	0.409	205.948	0	PA_without_intermediate	test	ward_and_allport	71	16.0	0.409	to_board	poldrack-single-stim	s595	False
205.953	0.1	0.612	206.565	0	PA_without_intermediate	test	ward_and_allport	82	16.0	0.612	to_hand	poldrack-single-stim	s595	False
206.567	0.1	0.28	206.847	0	PA_without_intermediate	test	ward_and_allport	89	16.0	0.28	to_board	poldrack-single-stim	s595	False
206.853	1.0	2.272	206.852	0	PA_without_intermediate	test	ward_and_allport	-1	16.0	n/a	feedback	poldrack-single-stim	s595	False
209.13	4.767	4.767	213.897	1	PA_with_intermediate	test	ward_and_allport	82	17.0	4.767	to_hand	poldrack-single-stim	s595	False
213.898	0.1	0.345	214.243	0	PA_with_intermediate	test	ward_and_allport	71	17.0	0.345	to_board	poldrack-single-stim	s595	False
214.249	0.1	0.342	214.591	0	PA_with_intermediate	test	ward_and_allport	82	17.0	0.342	to_hand	poldrack-single-stim	s595	False
214.593	0.1	0.36	214.953	0	PA_with_intermediate	test	ward_and_allport	89	17.0	0.36	to_board	poldrack-single-stim	s595	False
214.959	0.1	0.835	215.794	0	PA_with_intermediate	test	ward_and_allport	71	17.0	0.835	to_hand	poldrack-single-stim	s595	False
215.795	0.1	0.257	216.052	0	PA_with_intermediate	test	ward_and_allport	89	17.0	0.257	to_board	poldrack-single-stim	s595	False
216.06	1.0	3.632	216.059	0	PA_with_intermediate	test	ward_and_allport	-1	17.0	n/a	feedback	poldrack-single-stim	s595	False
219.697	3.942	3.942	223.639	1	PA_without_intermediate	test	ward_and_allport	71	18.0	3.942	to_hand	poldrack-single-stim	s595	False
223.64	0.1	0.299	223.939	0	PA_without_intermediate	test	ward_and_allport	89	18.0	0.299	to_board	poldrack-single-stim	s595	False
223.945	0.1	0.352	224.297	0	PA_without_intermediate	test	ward_and_allport	71	18.0	0.352	to_hand	poldrack-single-stim	s595	False
224.298	0.1	0.388	224.686	0	PA_without_intermediate	test	ward_and_allport	89	18.0	0.388	to_board	poldrack-single-stim	s595	False
224.691	0.1	0.574	225.265	0	PA_without_intermediate	test	ward_and_allport	71	18.0	0.574	to_hand	poldrack-single-stim	s595	False
225.266	0.1	0.297	225.563	0	PA_without_intermediate	test	ward_and_allport	82	18.0	0.297	to_board	poldrack-single-stim	s595	False
225.569	1.0	2.408	225.568	0	PA_without_intermediate	test	ward_and_allport	-1	18.0	n/a	feedback	poldrack-single-stim	s595	False
227.983	3.546	3.546	231.529	1	PA_without_intermediate	test	ward_and_allport	82	19.0	3.546	to_hand	poldrack-single-stim	s595	False
231.531	0.1	0.32	231.851	0	PA_without_intermediate	test	ward_and_allport	89	19.0	0.32	to_board	poldrack-single-stim	s595	False
231.858	0.1	0.443	232.301	0	PA_without_intermediate	test	ward_and_allport	82	19.0	0.443	to_hand	poldrack-single-stim	s595	False
232.303	0.1	0.291	232.594	0	PA_without_intermediate	test	ward_and_allport	71	19.0	0.291	to_board	poldrack-single-stim	s595	False
232.6	0.1	0.387	232.987	0	PA_without_intermediate	test	ward_and_allport	82	19.0	0.387	to_hand	poldrack-single-stim	s595	False
232.989	0.1	0.377	233.366	0	PA_without_intermediate	test	ward_and_allport	89	19.0	0.377	to_board	poldrack-single-stim	s595	False
233.373	1.0	2.0	233.372	0	PA_without_intermediate	test	ward_and_allport	-1	19.0	n/a	feedback	poldrack-single-stim	s595	False
235.378	3.1	3.1	238.478	1	PA_with_intermediate	test	ward_and_allport	89	20.0	3.1	to_hand	poldrack-single-stim	s595	False
238.479	0.1	0.354	238.833	0	PA_with_intermediate	test	ward_and_allport	82	20.0	0.354	to_board	poldrack-single-stim	s595	False
238.839	0.1	0.874	239.713	0	PA_with_intermediate	test	ward_and_allport	89	20.0	0.874	to_hand	poldrack-single-stim	s595	False
239.714	0.1	0.366	240.08	0	PA_with_intermediate	test	ward_and_allport	71	20.0	0.366	to_board	poldrack-single-stim	s595	False
240.086	0.1	1.295	241.381	0	PA_with_intermediate	test	ward_and_allport	82	20.0	1.295	to_hand	poldrack-single-stim	s595	False
241.382	0.1	0.359	241.741	0	PA_with_intermediate	test	ward_and_allport	71	20.0	0.359	to_board	poldrack-single-stim	s595	False
241.751	1.0	2.0	241.75	0	PA_with_intermediate	test	ward_and_allport	-1	20.0	n/a	feedback	poldrack-single-stim	s595	False
243.758	4.633	4.633	248.391	1	PA_with_intermediate	test	ward_and_allport	89	21.0	4.633	to_hand	poldrack-single-stim	s595	False
248.392	0.1	0.327	248.719	0	PA_with_intermediate	test	ward_and_allport	71	21.0	0.327	to_board	poldrack-single-stim	s595	False
248.725	0.1	0.406	249.131	0	PA_with_intermediate	test	ward_and_allport	89	21.0	0.406	to_hand	poldrack-single-stim	s595	False
249.132	0.1	0.4	249.532	0	PA_with_intermediate	test	ward_and_allport	82	21.0	0.4	to_board	poldrack-single-stim	s595	False
249.538	0.1	0.465	250.003	0	PA_with_intermediate	test	ward_and_allport	71	21.0	0.465	to_hand	poldrack-single-stim	s595	False
250.005	0.1	0.362	250.367	0	PA_with_intermediate	test	ward_and_allport	82	21.0	0.362	to_board	poldrack-single-stim	s595	False
250.375	1.0	2.0	250.374	0	PA_with_intermediate	test	ward_and_allport	-1	21.0	n/a	feedback	poldrack-single-stim	s595	False
252.382	3.669	3.669	256.051	1	PA_with_intermediate	test	ward_and_allport	82	22.0	3.669	to_hand	poldrack-single-stim	s595	False
256.053	0.1	0.326	256.379	0	PA_with_intermediate	test	ward_and_allport	71	22.0	0.326	to_board	poldrack-single-stim	s595	False
256.385	0.1	0.62	257.005	0	PA_with_intermediate	test	ward_and_allport	82	22.0	0.62	to_hand	poldrack-single-stim	s595	False
257.007	0.1	0.263	257.27	0	PA_with_intermediate	test	ward_and_allport	89	22.0	0.263	to_board	poldrack-single-stim	s595	False
257.278	0.1	0.483	257.761	0	PA_with_intermediate	test	ward_and_allport	71	22.0	0.483	to_hand	poldrack-single-stim	s595	False
257.762	0.1	0.263	258.025	0	PA_with_intermediate	test	ward_and_allport	82	22.0	0.263	to_board	poldrack-single-stim	s595	False
258.034	1.0	2.408	258.033	0	PA_with_intermediate	test	ward_and_allport	-1	22.0	n/a	feedback	poldrack-single-stim	s595	False
260.447	5.167	5.167	265.614	1	PA_without_intermediate	test	ward_and_allport	71	23.0	5.167	to_hand	poldrack-single-stim	s595	False
265.615	0.1	0.303	265.918	0	PA_without_intermediate	test	ward_and_allport	89	23.0	0.303	to_board	poldrack-single-stim	s595	False
265.925	0.1	0.463	266.388	0	PA_without_intermediate	test	ward_and_allport	71	23.0	0.463	to_hand	poldrack-single-stim	s595	False
266.389	0.1	0.308	266.697	0	PA_without_intermediate	test	ward_and_allport	82	23.0	0.308	to_board	poldrack-single-stim	s595	False
266.704	0.1	0.427	267.131	0	PA_without_intermediate	test	ward_and_allport	71	23.0	0.427	to_hand	poldrack-single-stim	s595	False
267.132	0.1	0.253	267.385	0	PA_without_intermediate	test	ward_and_allport	89	23.0	0.253	to_board	poldrack-single-stim	s595	False
267.393	1.0	2.816	267.392	0	PA_without_intermediate	test	ward_and_allport	-1	23.0	n/a	feedback	poldrack-single-stim	s595	False
270.217	4.599	4.599	274.816	1	PA_with_intermediate	test	ward_and_allport	89	24.0	4.599	to_hand	poldrack-single-stim	s595	False
274.817	0.1	0.254	275.071	0	PA_with_intermediate	test	ward_and_allport	71	24.0	0.254	to_board	poldrack-single-stim	s595	False
275.08	0.1	0.358	275.438	0	PA_with_intermediate	test	ward_and_allport	89	24.0	0.358	to_hand	poldrack-single-stim	s595	False
275.439	0.1	0.385	275.824	0	PA_with_intermediate	test	ward_and_allport	82	24.0	0.385	to_board	poldrack-single-stim	s595	False
275.832	0.1	0.621	276.453	0	PA_with_intermediate	test	ward_and_allport	71	24.0	0.621	to_hand	poldrack-single-stim	s595	False
276.454	0.1	0.315	276.769	0	PA_with_intermediate	test	ward_and_allport	89	24.0	0.315	to_board	poldrack-single-stim	s595	False
276.778	1.0	4.176	276.777	0	PA_with_intermediate	test	ward_and_allport	-1	24.0	n/a	feedback	poldrack-single-stim	s595	False
280.962	4.082	4.082	285.044	1	PA_with_intermediate	test	ward_and_allport	71	25.0	4.082	to_hand	poldrack-single-stim	s595	False
285.046	0.1	0.225	285.271	0	PA_with_intermediate	test	ward_and_allport	89	25.0	0.225	to_board	poldrack-single-stim	s595	False
285.28	0.1	0.302	285.582	0	PA_with_intermediate	test	ward_and_allport	71	25.0	0.302	to_hand	poldrack-single-stim	s595	False
285.583	0.1	0.263	285.846	0	PA_with_intermediate	test	ward_and_allport	82	25.0	0.263	to_board	poldrack-single-stim	s595	False
285.854	0.1	0.351	286.205	0	PA_with_intermediate	test	ward_and_allport	89	25.0	0.351	to_hand	poldrack-single-stim	s595	False
286.207	0.1	0.287	286.494	0	PA_with_intermediate	test	ward_and_allport	82	25.0	0.287	to_board	poldrack-single-stim	s595	False
286.505	1.0	3.36	286.504	0	PA_with_intermediate	test	ward_and_allport	-1	25.0	n/a	feedback	poldrack-single-stim	s595	False
289.875	2.929	2.929	292.804	1	PA_with_intermediate	test	ward_and_allport	71	26.0	2.929	to_hand	poldrack-single-stim	s595	False
292.805	0.1	0.277	293.082	0	PA_with_intermediate	test	ward_and_allport	82	26.0	0.277	to_board	poldrack-single-stim	s595	False
293.089	0.1	0.268	293.357	0	PA_with_intermediate	test	ward_and_allport	71	26.0	0.268	to_hand	poldrack-single-stim	s595	False
293.359	0.1	0.438	293.797	0	PA_with_intermediate	test	ward_and_allport	89	26.0	0.438	to_board	poldrack-single-stim	s595	False
293.805	0.1	0.55	294.355	0	PA_with_intermediate	test	ward_and_allport	82	26.0	0.55	to_hand	poldrack-single-stim	s595	False
294.355	0.1	0.302	294.657	0	PA_with_intermediate	test	ward_and_allport	89	26.0	0.302	to_board	poldrack-single-stim	s595	False
294.665	1.0	2.0	294.664	0	PA_with_intermediate	test	ward_and_allport	-1	26.0	n/a	feedback	poldrack-single-stim	s595	False
296.674	2.212	2.212	298.886	1	PA_without_intermediate	test	ward_and_allport	82	27.0	2.212	to_hand	poldrack-single-stim	s595	False
298.887	0.1	0.252	299.139	0	PA_without_intermediate	test	ward_and_allport	89	27.0	0.252	to_board	poldrack-single-stim	s595	False
299.147	0.1	1.139	300.286	0	PA_without_intermediate	test	ward_and_allport	82	27.0	1.139	to_hand	poldrack-single-stim	s595	False
300.287	0.1	0.296	300.583	0	PA_without_intermediate	test	ward_and_allport	89	27.0	0.296	to_board	poldrack-single-stim	s595	False
300.592	0.1	1.506	302.098	0	PA_without_intermediate	test	ward_and_allport	82	27.0	1.506	to_hand	poldrack-single-stim	s595	False
302.099	0.1	0.219	302.318	0	PA_without_intermediate	test	ward_and_allport	71	27.0	0.219	to_board	poldrack-single-stim	s595	False
302.327	1.0	2.408	302.326	0	PA_without_intermediate	test	ward_and_allport	-1	27.0	n/a	feedback	poldrack-single-stim	s595	False
304.744	5.446	5.446	310.19	1	PA_with_intermediate	test	ward_and_allport	82	28.0	5.446	to_hand	poldrack-single-stim	s595	False
310.191	0.1	0.294	310.485	0	PA_with_intermediate	test	ward_and_allport	71	28.0	0.294	to_board	poldrack-single-stim	s595	False
310.493	0.1	0.419	310.912	0	PA_with_intermediate	test	ward_and_allport	82	28.0	0.419	to_hand	poldrack-single-stim	s595	False
310.914	0.1	0.293	311.207	0	PA_with_intermediate	test	ward_and_allport	89	28.0	0.293	to_board	poldrack-single-stim	s595	False
311.215	0.1	0.664	311.879	0	PA_with_intermediate	test	ward_and_allport	71	28.0	0.664	to_hand	poldrack-single-stim	s595	False
311.881	0.1	0.278	312.159	0	PA_with_intermediate	test	ward_and_allport	89	28.0	0.278	to_board	poldrack-single-stim	s595	False
312.17	1.0	2.816	312.169	0	PA_with_intermediate	test	ward_and_allport	-1	28.0	n/a	feedback	poldrack-single-stim	s595	False
314.994	3.731	3.731	318.725	1	PA_without_intermediate	test	ward_and_allport	89	29.0	3.731	to_hand	poldrack-single-stim	s595	False
318.726	0.1	0.238	318.964	0	PA_without_intermediate	test	ward_and_allport	71	29.0	0.238	to_board	poldrack-single-stim	s595	False
318.974	0.1	0.611	319.585	0	PA_without_intermediate	test	ward_and_allport	89	29.0	0.611	to_hand	poldrack-single-stim	s595	False
319.586	0.1	0.329	319.915	0	PA_without_intermediate	test	ward_and_allport	82	29.0	0.329	to_board	poldrack-single-stim	s595	False
319.923	0.1	0.684	320.607	0	PA_without_intermediate	test	ward_and_allport	89	29.0	0.684	to_hand	poldrack-single-stim	s595	False
320.607	0.1	0.269	320.876	0	PA_without_intermediate	test	ward_and_allport	71	29.0	0.269	to_board	poldrack-single-stim	s595	False
320.885	1.0	3.088	320.884	0	PA_without_intermediate	test	ward_and_allport	-1	29.0	n/a	feedback	poldrack-single-stim	s595	False
328.985	2.518	2.518	331.503	1	PA_without_intermediate	test	ward_and_allport	89	30.0	2.518	to_hand	poldrack-single-stim	s595	False
331.505	0.1	0.233	331.738	0	PA_without_intermediate	test	ward_and_allport	71	30.0	0.233	to_board	poldrack-single-stim	s595	False
331.747	0.1	0.303	332.05	0	PA_without_intermediate	test	ward_and_allport	89	30.0	0.303	to_hand	poldrack-single-stim	s595	False
332.052	0.1	0.316	332.368	0	PA_without_intermediate	test	ward_and_allport	71	30.0	0.316	to_board	poldrack-single-stim	s595	False
332.377	0.1	0.311	332.688	0	PA_without_intermediate	test	ward_and_allport	89	30.0	0.311	to_hand	poldrack-single-stim	s595	False
332.69	0.1	0.235	332.925	0	PA_without_intermediate	test	ward_and_allport	82	30.0	0.235	to_board	poldrack-single-stim	s595	False
332.936	1.0	2.136	332.935	0	PA_without_intermediate	test	ward_and_allport	-1	30.0	n/a	feedback	poldrack-single-stim	s595	False
335.082	2.802	2.802	337.884	1	PA_without_intermediate	test	ward_and_allport	71	31.0	2.802	to_hand	poldrack-single-stim	s595	False
337.884	0.1	0.211	338.095	0	PA_without_intermediate	test	ward_and_allport	89	31.0	0.211	to_board	poldrack-single-stim	s595	False
338.104	0.1	0.258	338.362	0	PA_without_intermediate	test	ward_and_allport	71	31.0	0.258	to_hand	poldrack-single-stim	s595	False
338.363	0.1	0.235	338.598	0	PA_without_intermediate	test	ward_and_allport	82	31.0	0.235	to_board	poldrack-single-stim	s595	False
338.607	0.1	0.27	338.877	0	PA_without_intermediate	test	ward_and_allport	71	31.0	0.27	to_hand	poldrack-single-stim	s595	False
338.878	0.1	0.247	339.125	0	PA_without_intermediate	test	ward_and_allport	89	31.0	0.247	to_board	poldrack-single-stim	s595	False
339.136	1.0	7.168	339.135	0	PA_without_intermediate	test	ward_and_allport	-1	31.0	n/a	feedback	poldrack-single-stim	s595	False
346.313	4.543	4.543	350.856	1	PA_without_intermediate	test	ward_and_allport	89	32.0	4.543	to_hand	poldrack-single-stim	s595	False
350.857	0.1	0.319	351.176	0	PA_without_intermediate	test	ward_and_allport	82	32.0	0.319	to_board	poldrack-single-stim	s595	False
351.186	0.1	0.335	351.521	0	PA_without_intermediate	test	ward_and_allport	89	32.0	0.335	to_hand	poldrack-single-stim	s595	False
351.523	0.1	0.327	351.85	0	PA_without_intermediate	test	ward_and_allport	71	32.0	0.327	to_board	poldrack-single-stim	s595	False
351.861	0.1	0.327	352.188	0	PA_without_intermediate	test	ward_and_allport	89	32.0	0.327	to_hand	poldrack-single-stim	s595	False
352.189	0.1	0.287	352.476	0	PA_without_intermediate	test	ward_and_allport	82	32.0	0.287	to_board	poldrack-single-stim	s595	False
352.487	1.0	2.816	352.486	0	PA_without_intermediate	test	ward_and_allport	-1	32.0	n/a	feedback	poldrack-single-stim	s595	False
355.314	6.131	6.131	361.445	1	PA_with_intermediate	test	ward_and_allport	71	33.0	6.131	to_hand	poldrack-single-stim	s595	False
361.446	0.1	0.23	361.676	0	PA_with_intermediate	test	ward_and_allport	82	33.0	0.23	to_board	poldrack-single-stim	s595	False
361.687	0.1	0.549	362.236	0	PA_with_intermediate	test	ward_and_allport	71	33.0	0.549	to_hand	poldrack-single-stim	s595	False
362.238	0.1	0.299	362.537	0	PA_with_intermediate	test	ward_and_allport	89	33.0	0.299	to_board	poldrack-single-stim	s595	False
362.547	0.1	1.033	363.58	0	PA_with_intermediate	test	ward_and_allport	82	33.0	1.033	to_hand	poldrack-single-stim	s595	False
363.581	0.1	0.164	363.745	0	PA_with_intermediate	test	ward_and_allport	71	33.0	0.164	to_board	poldrack-single-stim	s595	False
363.759	1.0	2.952	363.758	0	PA_with_intermediate	test	ward_and_allport	-1	33.0	n/a	feedback	poldrack-single-stim	s595	False
366.722	3.983	3.983	370.705	1	PA_with_intermediate	test	ward_and_allport	82	34.0	3.983	to_hand	poldrack-single-stim	s595	False
370.706	0.1	0.273	370.979	0	PA_with_intermediate	test	ward_and_allport	89	34.0	0.273	to_board	poldrack-single-stim	s595	False
370.987	0.1	1.12	372.107	0	PA_with_intermediate	test	ward_and_allport	82	34.0	1.12	to_hand	poldrack-single-stim	s595	False
372.108	0.1	0.361	372.469	0	PA_with_intermediate	test	ward_and_allport	71	34.0	0.361	to_board	poldrack-single-stim	s595	False
372.478	0.1	0.539	373.017	0	PA_with_intermediate	test	ward_and_allport	89	34.0	0.539	to_hand	poldrack-single-stim	s595	False
373.018	0.1	0.296	373.314	0	PA_with_intermediate	test	ward_and_allport	82	34.0	0.296	to_board	poldrack-single-stim	s595	False
373.327	1.0	2.136	373.326	0	PA_with_intermediate	test	ward_and_allport	-1	34.0	n/a	feedback	poldrack-single-stim	s595	False
375.475	3.423	3.423	378.898	1	PA_without_intermediate	test	ward_and_allport	82	35.0	3.423	to_hand	poldrack-single-stim	s595	False
378.9	0.1	0.395	379.295	0	PA_without_intermediate	test	ward_and_allport	89	35.0	0.395	to_board	poldrack-single-stim	s595	False
379.304	0.1	1.17	380.474	0	PA_without_intermediate	test	ward_and_allport	82	35.0	1.17	to_hand	poldrack-single-stim	s595	False
380.476	0.1	0.276	380.752	0	PA_without_intermediate	test	ward_and_allport	71	35.0	0.276	to_board	poldrack-single-stim	s595	False
380.764	0.1	0.701	381.465	0	PA_without_intermediate	test	ward_and_allport	82	35.0	0.701	to_hand	poldrack-single-stim	s595	False
381.467	0.1	0.319	381.786	0	PA_without_intermediate	test	ward_and_allport	89	35.0	0.319	to_board	poldrack-single-stim	s595	False
381.798	1.0	2.68	381.797	0	PA_without_intermediate	test	ward_and_allport	-1	35.0	n/a	feedback	poldrack-single-stim	s595	False
384.489	5.183	5.183	389.672	1	PA_without_intermediate	test	ward_and_allport	82	36.0	5.183	to_hand	poldrack-single-stim	s595	False
389.674	0.1	0.249	389.923	0	PA_without_intermediate	test	ward_and_allport	71	36.0	0.249	to_board	poldrack-single-stim	s595	False
389.931	0.1	0.666	390.597	0	PA_without_intermediate	test	ward_and_allport	82	36.0	0.666	to_hand	poldrack-single-stim	s595	False
390.599	0.1	0.248	390.847	0	PA_without_intermediate	test	ward_and_allport	71	36.0	0.248	to_board	poldrack-single-stim	s595	False
390.859	0.1	0.529	391.388	0	PA_without_intermediate	test	ward_and_allport	82	36.0	0.529	to_hand	poldrack-single-stim	s595	False
391.388	0.1	0.265	391.653	0	PA_without_intermediate	test	ward_and_allport	89	36.0	0.265	to_board	poldrack-single-stim	s595	False
391.667	1.0	3.088	391.666	0	PA_without_intermediate	test	ward_and_allport	-1	36.0	n/a	feedback	poldrack-single-stim	s595	False
394.767	4.008	4.008	398.775	1	PA_with_intermediate	test	ward_and_allport	89	37.0	4.008	to_hand	poldrack-single-stim	s595	False
398.776	0.1	0.233	399.009	0	PA_with_intermediate	test	ward_and_allport	71	37.0	0.233	to_board	poldrack-single-stim	s595	False
399.021	0.1	0.385	399.406	0	PA_with_intermediate	test	ward_and_allport	89	37.0	0.385	to_hand	poldrack-single-stim	s595	False
399.408	0.1	0.252	399.66	0	PA_with_intermediate	test	ward_and_allport	82	37.0	0.252	to_board	poldrack-single-stim	s595	False
399.671	0.1	0.384	400.055	0	PA_with_intermediate	test	ward_and_allport	71	37.0	0.384	to_hand	poldrack-single-stim	s595	False
400.056	0.1	0.243	400.299	0	PA_with_intermediate	test	ward_and_allport	89	37.0	0.243	to_board	poldrack-single-stim	s595	False
400.312	1.0	2.0	400.311	0	PA_with_intermediate	test	ward_and_allport	-1	37.0	n/a	feedback	poldrack-single-stim	s595	False
402.321	6.422	6.422	408.743	1	PA_without_intermediate	test	ward_and_allport	71	38.0	6.422	to_hand	poldrack-single-stim	s595	False
408.744	0.1	0.294	409.038	0	PA_without_intermediate	test	ward_and_allport	82	38.0	0.294	to_board	poldrack-single-stim	s595	False
409.046	0.1	0.283	409.329	0	PA_without_intermediate	test	ward_and_allport	71	38.0	0.283	to_hand	poldrack-single-stim	s595	False
409.332	0.1	0.278	409.61	0	PA_without_intermediate	test	ward_and_allport	82	38.0	0.278	to_board	poldrack-single-stim	s595	False
409.621	0.1	0.279	409.9	0	PA_without_intermediate	test	ward_and_allport	71	38.0	0.279	to_hand	poldrack-single-stim	s595	False
409.901	0.1	0.263	410.164	0	PA_without_intermediate	test	ward_and_allport	89	38.0	0.263	to_board	poldrack-single-stim	s595	False
410.179	1.0	2.0	410.178	0	PA_without_intermediate	test	ward_and_allport	-1	38.0	n/a	feedback	poldrack-single-stim	s595	False
412.192	4.116	4.116	416.308	1	PA_without_intermediate	test	ward_and_allport	71	39.0	4.116	to_hand	poldrack-single-stim	s595	False
416.309	0.1	0.242	416.551	0	PA_without_intermediate	test	ward_and_allport	89	39.0	0.242	to_board	poldrack-single-stim	s595	False
416.563	0.1	0.294	416.857	0	PA_without_intermediate	test	ward_and_allport	71	39.0	0.294	to_hand	poldrack-single-stim	s595	False
416.857	0.1	0.308	417.165	0	PA_without_intermediate	test	ward_and_allport	89	39.0	0.308	to_board	poldrack-single-stim	s595	False
417.18	0.1	0.374	417.554	0	PA_without_intermediate	test	ward_and_allport	71	39.0	0.374	to_hand	poldrack-single-stim	s595	False
417.554	0.1	0.232	417.786	0	PA_without_intermediate	test	ward_and_allport	82	39.0	0.232	to_board	poldrack-single-stim	s595	False
417.796	1.0	2.0	417.795	0	PA_without_intermediate	test	ward_and_allport	-1	39.0	n/a	feedback	poldrack-single-stim	s595	False
419.804	3.983	3.983	423.787	1	PA_with_intermediate	test	ward_and_allport	82	40.0	3.983	to_hand	poldrack-single-stim	s595	False
423.788	0.1	0.281	424.069	0	PA_with_intermediate	test	ward_and_allport	89	40.0	0.281	to_board	poldrack-single-stim	s595	False
424.077	0.1	0.516	424.593	0	PA_with_intermediate	test	ward_and_allport	82	40.0	0.516	to_hand	poldrack-single-stim	s595	False
424.594	0.1	0.23	424.824	0	PA_with_intermediate	test	ward_and_allport	71	40.0	0.23	to_board	poldrack-single-stim	s595	False
424.835	0.1	0.472	425.307	0	PA_with_intermediate	test	ward_and_allport	89	40.0	0.472	to_hand	poldrack-single-stim	s595	False
425.308	0.1	0.247	425.555	0	PA_with_intermediate	test	ward_and_allport	82	40.0	0.247	to_board	poldrack-single-stim	s595	False
425.567	1.0	2.544	425.566	0	PA_with_intermediate	test	ward_and_allport	-1	40.0	n/a	feedback	poldrack-single-stim	s595	False
428.122	3.028	3.028	431.15	1	PA_without_intermediate	test	ward_and_allport	89	41.0	3.028	to_hand	poldrack-single-stim	s595	False
431.152	0.1	0.19	431.342	0	PA_without_intermediate	test	ward_and_allport	71	41.0	0.19	to_board	poldrack-single-stim	s595	False
431.354	0.1	0.258	431.612	0	PA_without_intermediate	test	ward_and_allport	89	41.0	0.258	to_hand	poldrack-single-stim	s595	False
431.614	0.1	0.263	431.877	0	PA_without_intermediate	test	ward_and_allport	71	41.0	0.263	to_board	poldrack-single-stim	s595	False
431.89	0.1	0.435	432.325	0	PA_without_intermediate	test	ward_and_allport	89	41.0	0.435	to_hand	poldrack-single-stim	s595	False
432.327	0.1	0.189	432.516	0	PA_without_intermediate	test	ward_and_allport	82	41.0	0.189	to_board	poldrack-single-stim	s595	False
432.527	1.0	2.272	432.526	0	PA_without_intermediate	test	ward_and_allport	-1	41.0	n/a	feedback	poldrack-single-stim	s595	False
434.807	3.507	3.507	438.314	1	PA_with_intermediate	test	ward_and_allport	89	42.0	3.507	to_hand	poldrack-single-stim	s595	False
438.315	0.1	0.215	438.53	0	PA_with_intermediate	test	ward_and_allport	71	42.0	0.215	to_board	poldrack-single-stim	s595	False
438.538	0.1	0.323	438.861	0	PA_with_intermediate	test	ward_and_allport	89	42.0	0.323	to_hand	poldrack-single-stim	s595	False
438.862	0.1	0.338	439.2	0	PA_with_intermediate	test	ward_and_allport	82	42.0	0.338	to_board	poldrack-single-stim	s595	False
439.211	0.1	0.544	439.755	0	PA_with_intermediate	test	ward_and_allport	71	42.0	0.544	to_hand	poldrack-single-stim	s595	False
439.757	0.1	0.216	439.973	0	PA_with_intermediate	test	ward_and_allport	82	42.0	0.216	to_board	poldrack-single-stim	s595	False
439.986	1.0	4.04	439.985	0	PA_with_intermediate	test	ward_and_allport	-1	42.0	n/a	feedback	poldrack-single-stim	s595	False
444.035	4.22	4.22	448.255	1	PA_with_intermediate	test	ward_and_allport	89	43.0	4.22	to_hand	poldrack-single-stim	s595	False
448.256	0.1	0.232	448.488	0	PA_with_intermediate	test	ward_and_allport	82	43.0	0.232	to_board	poldrack-single-stim	s595	False
448.497	0.1	0.327	448.824	0	PA_with_intermediate	test	ward_and_allport	89	43.0	0.327	to_hand	poldrack-single-stim	s595	False
448.825	0.1	0.26	449.085	0	PA_with_intermediate	test	ward_and_allport	71	43.0	0.26	to_board	poldrack-single-stim	s595	False
449.096	0.1	0.539	449.635	0	PA_with_intermediate	test	ward_and_allport	82	43.0	0.539	to_hand	poldrack-single-stim	s595	False
449.635	0.1	0.2	449.835	0	PA_with_intermediate	test	ward_and_allport	89	43.0	0.2	to_board	poldrack-single-stim	s595	False
449.856	1.0	2.272	449.855	0	PA_with_intermediate	test	ward_and_allport	-1	43.0	n/a	feedback	poldrack-single-stim	s595	False
452.137	3.72	3.72	455.857	1	PA_with_intermediate	test	ward_and_allport	89	44.0	3.72	to_hand	poldrack-single-stim	s595	False
455.859	0.1	0.205	456.064	0	PA_with_intermediate	test	ward_and_allport	82	44.0	0.205	to_board	poldrack-single-stim	s595	False
456.073	0.1	0.669	456.742	0	PA_with_intermediate	test	ward_and_allport	89	44.0	0.669	to_hand	poldrack-single-stim	s595	False
456.744	0.1	0.223	456.967	0	PA_with_intermediate	test	ward_and_allport	71	44.0	0.223	to_board	poldrack-single-stim	s595	False
456.977	0.1	0.597	457.574	0	PA_with_intermediate	test	ward_and_allport	82	44.0	0.597	to_hand	poldrack-single-stim	s595	False
457.576	0.1	0.192	457.768	0	PA_with_intermediate	test	ward_and_allport	89	44.0	0.192	to_board	poldrack-single-stim	s595	False
457.784	1.0	2.136	457.783	0	PA_with_intermediate	test	ward_and_allport	-1	44.0	n/a	feedback	poldrack-single-stim	s595	False
464.936	8.375	8.375	473.311	1	PA_with_intermediate	test	ward_and_allport	89	45.0	8.375	to_hand	poldrack-single-stim	s595	False
473.312	0.1	0.242	473.554	0	PA_with_intermediate	test	ward_and_allport	82	45.0	0.242	to_board	poldrack-single-stim	s595	False
473.567	0.1	0.287	473.854	0	PA_with_intermediate	test	ward_and_allport	89	45.0	0.287	to_hand	poldrack-single-stim	s595	False
473.855	0.1	0.284	474.139	0	PA_with_intermediate	test	ward_and_allport	71	45.0	0.284	to_board	poldrack-single-stim	s595	False
474.152	0.1	0.273	474.425	0	PA_with_intermediate	test	ward_and_allport	82	45.0	0.273	to_hand	poldrack-single-stim	s595	False
474.426	0.1	0.21	474.636	0	PA_with_intermediate	test	ward_and_allport	71	45.0	0.21	to_board	poldrack-single-stim	s595	False
474.651	1.0	2.0	474.65	0	PA_with_intermediate	test	ward_and_allport	-1	45.0	n/a	feedback	poldrack-single-stim	s595	False
476.664	4.802	4.802	481.466	1	PA_with_intermediate	test	ward_and_allport	71	46.0	4.802	to_hand	poldrack-single-stim	s595	False
481.468	0.1	0.264	481.732	0	PA_with_intermediate	test	ward_and_allport	89	46.0	0.264	to_board	poldrack-single-stim	s595	False
481.746	0.1	0.238	481.984	0	PA_with_intermediate	test	ward_and_allport	71	46.0	0.238	to_hand	poldrack-single-stim	s595	False
481.986	0.1	0.248	482.234	0	PA_with_intermediate	test	ward_and_allport	82	46.0	0.248	to_board	poldrack-single-stim	s595	False
482.248	0.1	0.331	482.579	0	PA_with_intermediate	test	ward_and_allport	89	46.0	0.331	to_hand	poldrack-single-stim	s595	False
482.581	0.1	0.185	482.766	0	PA_with_intermediate	test	ward_and_allport	71	46.0	0.185	to_board	poldrack-single-stim	s595	False
482.78	1.0	2.0	482.779	0	PA_with_intermediate	test	ward_and_allport	-1	46.0	n/a	feedback	poldrack-single-stim	s595	False
484.788	3.142	3.142	487.93	1	PA_without_intermediate	test	ward_and_allport	71	47.0	3.142	to_hand	poldrack-single-stim	s595	False
487.932	0.1	0.235	488.167	0	PA_without_intermediate	test	ward_and_allport	82	47.0	0.235	to_board	poldrack-single-stim	s595	False
488.176	0.1	0.285	488.461	0	PA_without_intermediate	test	ward_and_allport	71	47.0	0.285	to_hand	poldrack-single-stim	s595	False
488.463	0.1	0.276	488.739	0	PA_without_intermediate	test	ward_and_allport	89	47.0	0.276	to_board	poldrack-single-stim	s595	False
488.75	0.1	0.335	489.085	0	PA_without_intermediate	test	ward_and_allport	71	47.0	0.335	to_hand	poldrack-single-stim	s595	False
489.086	0.1	0.248	489.334	0	PA_without_intermediate	test	ward_and_allport	82	47.0	0.248	to_board	poldrack-single-stim	s595	False
489.348	1.0	2.408	489.347	0	PA_without_intermediate	test	ward_and_allport	-1	47.0	n/a	feedback	poldrack-single-stim	s595	False
