onset	duration	block_duration	movement_onset	planning	condition	exp_stage	experiment_exp_id	key_press	problem_id	response_time	trial_id	trial_type	worker_id	junk
3.014	2.901	2.901	5.915	1	UA_with_intermediate	practice	ward_and_allport	71	0.0	2.901	to_hand	poldrack-single-stim	s491	False
5.919	0.1	0.44	6.359	0	UA_with_intermediate	practice	ward_and_allport	82	0.0	0.44	to_board	poldrack-single-stim	s491	False
6.363	0.1	0.986	7.349	0	UA_with_intermediate	practice	ward_and_allport	71	0.0	0.986	to_hand	poldrack-single-stim	s491	False
7.351	0.1	0.326	7.677	0	UA_with_intermediate	practice	ward_and_allport	89	0.0	0.326	to_board	poldrack-single-stim	s491	False
7.68	0.1	0.957	8.637	0	UA_with_intermediate	practice	ward_and_allport	82	0.0	0.957	to_hand	poldrack-single-stim	s491	False
8.639	0.1	0.291	8.93	0	UA_with_intermediate	practice	ward_and_allport	89	0.0	0.291	to_board	poldrack-single-stim	s491	False
8.935	1.0	2.5	8.934	0	UA_with_intermediate	practice	ward_and_allport	-1	0.0	n/a	feedback	poldrack-single-stim	s491	False
11.44	2.419	2.419	13.859	1	UA_with_intermediate	practice	ward_and_allport	71	1.0	2.419	to_hand	poldrack-single-stim	s491	False
13.862	0.1	0.269	14.131	0	UA_with_intermediate	practice	ward_and_allport	89	1.0	0.269	to_board	poldrack-single-stim	s491	False
14.136	0.1	1.793	15.929	0	UA_with_intermediate	practice	ward_and_allport	89	1.0	1.793	to_hand	poldrack-single-stim	s491	False
15.931	0.1	0.423	16.354	0	UA_with_intermediate	practice	ward_and_allport	82	1.0	0.423	to_board	poldrack-single-stim	s491	False
16.358	0.1	1.25	17.608	0	UA_with_intermediate	practice	ward_and_allport	89	1.0	1.25	to_hand	poldrack-single-stim	s491	False
17.61	0.1	0.276	17.886	0	UA_with_intermediate	practice	ward_and_allport	71	1.0	0.276	to_board	poldrack-single-stim	s491	False
17.89	0.1	0.734	18.624	0	UA_with_intermediate	practice	ward_and_allport	89	1.0	0.734	to_hand	poldrack-single-stim	s491	False
18.626	0.1	0.82	19.446	0	UA_with_intermediate	practice	ward_and_allport	89	1.0	0.82	to_board	poldrack-single-stim	s491	False
19.452	0.1	0.802	20.254	0	UA_with_intermediate	practice	ward_and_allport	71	1.0	0.802	to_hand	poldrack-single-stim	s491	False
20.256	0.1	0.676	20.932	0	UA_with_intermediate	practice	ward_and_allport	71	1.0	0.676	to_board	poldrack-single-stim	s491	False
20.936	0.1	0.431	21.367	0	UA_with_intermediate	practice	ward_and_allport	82	1.0	0.431	to_hand	poldrack-single-stim	s491	False
21.369	0.1	0.362	21.731	0	UA_with_intermediate	practice	ward_and_allport	89	1.0	0.362	to_board	poldrack-single-stim	s491	False
21.738	0.1	0.58	22.318	0	UA_with_intermediate	practice	ward_and_allport	71	1.0	0.58	to_hand	poldrack-single-stim	s491	False
22.321	0.1	0.332	22.653	0	UA_with_intermediate	practice	ward_and_allport	89	1.0	0.332	to_board	poldrack-single-stim	s491	False
22.658	1.0	2.1	22.657	0	UA_with_intermediate	practice	ward_and_allport	-1	1.0	n/a	feedback	poldrack-single-stim	s491	False
24.762	3.213	3.213	27.975	1	UA_without_intermediate	practice	ward_and_allport	71	2.0	3.213	to_hand	poldrack-single-stim	s491	False
27.977	0.1	0.322	28.299	0	UA_without_intermediate	practice	ward_and_allport	82	2.0	0.322	to_board	poldrack-single-stim	s491	False
28.303	0.1	0.416	28.719	0	UA_without_intermediate	practice	ward_and_allport	71	2.0	0.416	to_hand	poldrack-single-stim	s491	False
28.722	0.1	0.287	29.009	0	UA_without_intermediate	practice	ward_and_allport	82	2.0	0.287	to_board	poldrack-single-stim	s491	False
29.014	0.1	3.74	32.754	0	UA_without_intermediate	practice	ward_and_allport	82	2.0	3.74	to_hand	poldrack-single-stim	s491	False
32.756	0.1	0.249	33.005	0	UA_without_intermediate	practice	ward_and_allport	89	2.0	0.249	to_board	poldrack-single-stim	s491	False
33.011	0.1	1.416	34.427	0	UA_without_intermediate	practice	ward_and_allport	89	2.0	1.416	to_hand	poldrack-single-stim	s491	False
34.43	0.1	0.213	34.643	0	UA_without_intermediate	practice	ward_and_allport	71	2.0	0.213	to_board	poldrack-single-stim	s491	False
34.648	0.1	1.314	35.962	0	UA_without_intermediate	practice	ward_and_allport	71	2.0	1.314	to_hand	poldrack-single-stim	s491	False
35.965	0.1	1.736	37.701	0	UA_without_intermediate	practice	ward_and_allport	71	2.0	1.736	to_board	poldrack-single-stim	s491	False
37.705	0.1	1.114	38.819	0	UA_without_intermediate	practice	ward_and_allport	71	2.0	1.114	to_hand	poldrack-single-stim	s491	False
38.821	0.1	0.523	39.344	0	UA_without_intermediate	practice	ward_and_allport	71	2.0	0.523	to_board	poldrack-single-stim	s491	False
39.349	0.1	0.301	39.65	0	UA_without_intermediate	practice	ward_and_allport	82	2.0	0.301	to_hand	poldrack-single-stim	s491	False
39.652	0.1	0.135	39.787	0	UA_without_intermediate	practice	ward_and_allport	71	2.0	0.135	to_board	poldrack-single-stim	s491	False
39.792	0.1	0.76	40.552	0	UA_without_intermediate	practice	ward_and_allport	82	2.0	0.76	to_hand	poldrack-single-stim	s491	False
40.554	0.1	0.304	40.858	0	UA_without_intermediate	practice	ward_and_allport	89	2.0	0.304	to_board	poldrack-single-stim	s491	False
40.864	0.1	1.038	41.902	0	UA_without_intermediate	practice	ward_and_allport	71	2.0	1.038	to_hand	poldrack-single-stim	s491	False
41.904	0.1	0.295	42.199	0	UA_without_intermediate	practice	ward_and_allport	89	2.0	0.295	to_board	poldrack-single-stim	s491	False
42.205	0.1	0.325	42.53	0	UA_without_intermediate	practice	ward_and_allport	71	2.0	0.325	to_hand	poldrack-single-stim	s491	False
42.533	0.1	0.223	42.756	0	UA_without_intermediate	practice	ward_and_allport	89	2.0	0.223	to_board	poldrack-single-stim	s491	False
42.763	1.0	2.2	42.762	0	UA_without_intermediate	practice	ward_and_allport	-1	2.0	n/a	feedback	poldrack-single-stim	s491	False
44.97	2.186	2.186	47.156	1	UA_without_intermediate	practice	ward_and_allport	71	3.0	2.186	to_hand	poldrack-single-stim	s491	False
47.159	0.1	0.326	47.485	0	UA_without_intermediate	practice	ward_and_allport	89	3.0	0.326	to_board	poldrack-single-stim	s491	False
47.492	0.1	0.882	48.374	0	UA_without_intermediate	practice	ward_and_allport	82	3.0	0.882	to_hand	poldrack-single-stim	s491	False
48.377	0.1	0.39	48.767	0	UA_without_intermediate	practice	ward_and_allport	89	3.0	0.39	to_board	poldrack-single-stim	s491	False
48.773	0.1	0.384	49.157	0	UA_without_intermediate	practice	ward_and_allport	71	3.0	0.384	to_hand	poldrack-single-stim	s491	False
49.16	0.1	0.256	49.416	0	UA_without_intermediate	practice	ward_and_allport	89	3.0	0.256	to_board	poldrack-single-stim	s491	False
49.423	1.0	2.0	49.422	0	UA_without_intermediate	practice	ward_and_allport	-1	3.0	n/a	feedback	poldrack-single-stim	s491	False
53.433	4.79	4.79	58.223	1	PA_without_intermediate	test	ward_and_allport	89	0.0	4.79	to_hand	poldrack-single-stim	s491	False
58.225	0.1	0.425	58.65	0	PA_without_intermediate	test	ward_and_allport	71	0.0	0.425	to_board	poldrack-single-stim	s491	False
58.655	0.1	1.416	60.071	0	PA_without_intermediate	test	ward_and_allport	89	0.0	1.416	to_hand	poldrack-single-stim	s491	False
60.074	0.1	0.576	60.65	0	PA_without_intermediate	test	ward_and_allport	71	0.0	0.576	to_board	poldrack-single-stim	s491	False
60.655	0.1	0.537	61.192	0	PA_without_intermediate	test	ward_and_allport	89	0.0	0.537	to_hand	poldrack-single-stim	s491	False
61.195	0.1	0.299	61.494	0	PA_without_intermediate	test	ward_and_allport	82	0.0	0.299	to_board	poldrack-single-stim	s491	False
61.502	1.0	3.088	61.501	0	PA_without_intermediate	test	ward_and_allport	-1	0.0	n/a	feedback	poldrack-single-stim	s491	False
64.596	3.559	3.559	68.155	1	PA_with_intermediate	test	ward_and_allport	82	1.0	3.559	to_hand	poldrack-single-stim	s491	False
68.158	0.1	0.54	68.698	0	PA_with_intermediate	test	ward_and_allport	71	1.0	0.54	to_board	poldrack-single-stim	s491	False
68.705	0.1	1.31	70.015	0	PA_with_intermediate	test	ward_and_allport	82	1.0	1.31	to_hand	poldrack-single-stim	s491	False
70.017	0.1	0.51	70.527	0	PA_with_intermediate	test	ward_and_allport	89	1.0	0.51	to_board	poldrack-single-stim	s491	False
70.534	0.1	1.279	71.813	0	PA_with_intermediate	test	ward_and_allport	71	1.0	1.279	to_hand	poldrack-single-stim	s491	False
71.815	0.1	0.495	72.31	0	PA_with_intermediate	test	ward_and_allport	82	1.0	0.495	to_board	poldrack-single-stim	s491	False
72.317	1.0	2.0	72.316	0	PA_with_intermediate	test	ward_and_allport	-1	1.0	n/a	feedback	poldrack-single-stim	s491	False
74.322	2.802	2.802	77.124	1	PA_without_intermediate	test	ward_and_allport	89	2.0	2.802	to_hand	poldrack-single-stim	s491	False
77.127	0.1	0.6	77.727	0	PA_without_intermediate	test	ward_and_allport	82	2.0	0.6	to_board	poldrack-single-stim	s491	False
77.736	0.1	1.022	78.758	0	PA_without_intermediate	test	ward_and_allport	89	2.0	1.022	to_hand	poldrack-single-stim	s491	False
78.76	0.1	0.629	79.389	0	PA_without_intermediate	test	ward_and_allport	82	2.0	0.629	to_board	poldrack-single-stim	s491	False
79.396	0.1	0.608	80.004	0	PA_without_intermediate	test	ward_and_allport	89	2.0	0.608	to_hand	poldrack-single-stim	s491	False
80.007	0.1	0.275	80.282	0	PA_without_intermediate	test	ward_and_allport	71	2.0	0.275	to_board	poldrack-single-stim	s491	False
80.291	1.0	2.0	80.29	0	PA_without_intermediate	test	ward_and_allport	-1	2.0	n/a	feedback	poldrack-single-stim	s491	False
82.299	4.101	4.101	86.4	1	PA_without_intermediate	test	ward_and_allport	71	3.0	4.101	to_hand	poldrack-single-stim	s491	False
86.403	0.1	0.648	87.051	0	PA_without_intermediate	test	ward_and_allport	82	3.0	0.648	to_board	poldrack-single-stim	s491	False
87.058	0.1	0.832	87.89	0	PA_without_intermediate	test	ward_and_allport	71	3.0	0.832	to_hand	poldrack-single-stim	s491	False
87.892	0.1	0.308	88.2	0	PA_without_intermediate	test	ward_and_allport	89	3.0	0.308	to_board	poldrack-single-stim	s491	False
88.208	0.1	0.794	89.002	0	PA_without_intermediate	test	ward_and_allport	71	3.0	0.794	to_hand	poldrack-single-stim	s491	False
89.005	0.1	0.363	89.368	0	PA_without_intermediate	test	ward_and_allport	82	3.0	0.363	to_board	poldrack-single-stim	s491	False
89.379	1.0	2.0	89.378	0	PA_without_intermediate	test	ward_and_allport	-1	3.0	n/a	feedback	poldrack-single-stim	s491	False
91.386	3.722	3.722	95.108	1	PA_with_intermediate	test	ward_and_allport	82	4.0	3.722	to_hand	poldrack-single-stim	s491	False
95.11	0.1	0.673	95.783	0	PA_with_intermediate	test	ward_and_allport	89	4.0	0.673	to_board	poldrack-single-stim	s491	False
95.79	0.1	0.913	96.703	0	PA_with_intermediate	test	ward_and_allport	82	4.0	0.913	to_hand	poldrack-single-stim	s491	False
96.705	0.1	0.337	97.042	0	PA_with_intermediate	test	ward_and_allport	71	4.0	0.337	to_board	poldrack-single-stim	s491	False
97.049	0.1	0.829	97.878	0	PA_with_intermediate	test	ward_and_allport	89	4.0	0.829	to_hand	poldrack-single-stim	s491	False
97.881	0.1	0.421	98.302	0	PA_with_intermediate	test	ward_and_allport	82	4.0	0.421	to_board	poldrack-single-stim	s491	False
98.311	1.0	2.544	98.31	0	PA_with_intermediate	test	ward_and_allport	-1	4.0	n/a	feedback	poldrack-single-stim	s491	False
100.863	4.902	4.902	105.765	1	PA_without_intermediate	test	ward_and_allport	71	5.0	4.902	to_hand	poldrack-single-stim	s491	False
105.767	0.1	0.375	106.142	0	PA_without_intermediate	test	ward_and_allport	89	5.0	0.375	to_board	poldrack-single-stim	s491	False
106.152	0.1	0.303	106.455	0	PA_without_intermediate	test	ward_and_allport	71	5.0	0.303	to_hand	poldrack-single-stim	s491	False
106.458	0.1	0.316	106.774	0	PA_without_intermediate	test	ward_and_allport	89	5.0	0.316	to_board	poldrack-single-stim	s491	False
106.784	0.1	0.373	107.157	0	PA_without_intermediate	test	ward_and_allport	71	5.0	0.373	to_hand	poldrack-single-stim	s491	False
107.159	0.1	0.278	107.437	0	PA_without_intermediate	test	ward_and_allport	82	5.0	0.278	to_board	poldrack-single-stim	s491	False
107.448	1.0	2.272	107.447	0	PA_without_intermediate	test	ward_and_allport	-1	5.0	n/a	feedback	poldrack-single-stim	s491	False
109.728	6.442	6.442	116.17	1	PA_with_intermediate	test	ward_and_allport	89	6.0	6.442	to_hand	poldrack-single-stim	s491	False
116.172	0.1	0.392	116.564	0	PA_with_intermediate	test	ward_and_allport	71	6.0	0.392	to_board	poldrack-single-stim	s491	False
116.573	0.1	0.451	117.024	0	PA_with_intermediate	test	ward_and_allport	89	6.0	0.451	to_hand	poldrack-single-stim	s491	False
117.027	0.1	0.354	117.381	0	PA_with_intermediate	test	ward_and_allport	82	6.0	0.354	to_board	poldrack-single-stim	s491	False
117.389	0.1	0.816	118.205	0	PA_with_intermediate	test	ward_and_allport	71	6.0	0.816	to_hand	poldrack-single-stim	s491	False
118.207	0.1	0.197	118.404	0	PA_with_intermediate	test	ward_and_allport	89	6.0	0.197	to_board	poldrack-single-stim	s491	False
118.417	1.0	4.04	118.416	0	PA_with_intermediate	test	ward_and_allport	-1	6.0	n/a	feedback	poldrack-single-stim	s491	False
122.465	5.129	5.129	127.594	1	PA_with_intermediate	test	ward_and_allport	89	7.0	5.129	to_hand	poldrack-single-stim	s491	False
127.598	0.1	0.347	127.945	0	PA_with_intermediate	test	ward_and_allport	82	7.0	0.347	to_board	poldrack-single-stim	s491	False
127.954	0.1	0.407	128.361	0	PA_with_intermediate	test	ward_and_allport	89	7.0	0.407	to_hand	poldrack-single-stim	s491	False
128.364	0.1	0.3	128.664	0	PA_with_intermediate	test	ward_and_allport	71	7.0	0.3	to_board	poldrack-single-stim	s491	False
128.673	0.1	0.724	129.397	0	PA_with_intermediate	test	ward_and_allport	82	7.0	0.724	to_hand	poldrack-single-stim	s491	False
129.4	0.1	0.219	129.619	0	PA_with_intermediate	test	ward_and_allport	89	7.0	0.219	to_board	poldrack-single-stim	s491	False
129.632	1.0	2.272	129.631	0	PA_with_intermediate	test	ward_and_allport	-1	7.0	n/a	feedback	poldrack-single-stim	s491	False
131.916	4.782	4.782	136.698	1	PA_with_intermediate	test	ward_and_allport	89	8.0	4.782	to_hand	poldrack-single-stim	s491	False
136.703	0.1	0.469	137.172	0	PA_with_intermediate	test	ward_and_allport	71	8.0	0.469	to_board	poldrack-single-stim	s491	False
137.182	0.1	0.474	137.656	0	PA_with_intermediate	test	ward_and_allport	89	8.0	0.474	to_hand	poldrack-single-stim	s491	False
137.658	0.1	0.837	138.495	0	PA_with_intermediate	test	ward_and_allport	82	8.0	0.837	to_board	poldrack-single-stim	s491	False
138.506	0.1	0.572	139.078	0	PA_with_intermediate	test	ward_and_allport	71	8.0	0.572	to_hand	poldrack-single-stim	s491	False
139.079	0.1	0.327	139.406	0	PA_with_intermediate	test	ward_and_allport	82	8.0	0.327	to_board	poldrack-single-stim	s491	False
139.418	1.0	2.136	139.417	0	PA_with_intermediate	test	ward_and_allport	-1	8.0	n/a	feedback	poldrack-single-stim	s491	False
141.565	3.943	3.943	145.508	1	PA_with_intermediate	test	ward_and_allport	71	9.0	3.943	to_hand	poldrack-single-stim	s491	False
145.51	0.1	0.406	145.916	0	PA_with_intermediate	test	ward_and_allport	89	9.0	0.406	to_board	poldrack-single-stim	s491	False
145.926	0.1	0.711	146.637	0	PA_with_intermediate	test	ward_and_allport	71	9.0	0.711	to_hand	poldrack-single-stim	s491	False
146.639	0.1	0.364	147.003	0	PA_with_intermediate	test	ward_and_allport	82	9.0	0.364	to_board	poldrack-single-stim	s491	False
147.012	0.1	0.984	147.996	0	PA_with_intermediate	test	ward_and_allport	89	9.0	0.984	to_hand	poldrack-single-stim	s491	False
147.998	0.1	0.249	148.247	0	PA_with_intermediate	test	ward_and_allport	71	9.0	0.249	to_board	poldrack-single-stim	s491	False
148.256	1.0	2.0	148.255	0	PA_with_intermediate	test	ward_and_allport	-1	9.0	n/a	feedback	poldrack-single-stim	s491	False
150.267	4.655	4.655	154.922	1	PA_with_intermediate	test	ward_and_allport	71	10.0	4.655	to_hand	poldrack-single-stim	s491	False
154.925	0.1	0.539	155.464	0	PA_with_intermediate	test	ward_and_allport	89	10.0	0.539	to_board	poldrack-single-stim	s491	False
155.475	0.1	0.565	156.04	0	PA_with_intermediate	test	ward_and_allport	71	10.0	0.565	to_hand	poldrack-single-stim	s491	False
156.043	0.1	0.341	156.384	0	PA_with_intermediate	test	ward_and_allport	82	10.0	0.341	to_board	poldrack-single-stim	s491	False
156.396	0.1	0.637	157.033	0	PA_with_intermediate	test	ward_and_allport	89	10.0	0.637	to_hand	poldrack-single-stim	s491	False
157.036	0.1	0.276	157.312	0	PA_with_intermediate	test	ward_and_allport	82	10.0	0.276	to_board	poldrack-single-stim	s491	False
157.322	1.0	2.0	157.321	0	PA_with_intermediate	test	ward_and_allport	-1	10.0	n/a	feedback	poldrack-single-stim	s491	False
159.331	3.32	3.32	162.651	1	PA_without_intermediate	test	ward_and_allport	89	11.0	3.32	to_hand	poldrack-single-stim	s491	False
162.653	0.1	0.387	163.04	0	PA_without_intermediate	test	ward_and_allport	71	11.0	0.387	to_board	poldrack-single-stim	s491	False
163.052	0.1	0.368	163.42	0	PA_without_intermediate	test	ward_and_allport	89	11.0	0.368	to_hand	poldrack-single-stim	s491	False
163.422	0.1	0.364	163.786	0	PA_without_intermediate	test	ward_and_allport	71	11.0	0.364	to_board	poldrack-single-stim	s491	False
163.797	0.1	0.349	164.146	0	PA_without_intermediate	test	ward_and_allport	89	11.0	0.349	to_hand	poldrack-single-stim	s491	False
164.149	0.1	0.235	164.384	0	PA_without_intermediate	test	ward_and_allport	82	11.0	0.235	to_board	poldrack-single-stim	s491	False
164.397	1.0	2.408	164.396	0	PA_without_intermediate	test	ward_and_allport	-1	11.0	n/a	feedback	poldrack-single-stim	s491	False
166.814	2.721	2.721	169.535	1	PA_with_intermediate	test	ward_and_allport	89	12.0	2.721	to_hand	poldrack-single-stim	s491	False
169.537	0.1	0.596	170.133	0	PA_with_intermediate	test	ward_and_allport	82	12.0	0.596	to_board	poldrack-single-stim	s491	False
170.146	0.1	0.401	170.547	0	PA_with_intermediate	test	ward_and_allport	89	12.0	0.401	to_hand	poldrack-single-stim	s491	False
170.55	0.1	0.308	170.858	0	PA_with_intermediate	test	ward_and_allport	71	12.0	0.308	to_board	poldrack-single-stim	s491	False
170.867	0.1	1.316	172.183	0	PA_with_intermediate	test	ward_and_allport	82	12.0	1.316	to_hand	poldrack-single-stim	s491	False
172.186	0.1	0.238	172.424	0	PA_with_intermediate	test	ward_and_allport	71	12.0	0.238	to_board	poldrack-single-stim	s491	False
172.437	1.0	3.768	172.436	0	PA_with_intermediate	test	ward_and_allport	-1	12.0	n/a	feedback	poldrack-single-stim	s491	False
176.216	3.449	3.449	179.665	1	PA_with_intermediate	test	ward_and_allport	82	13.0	3.449	to_hand	poldrack-single-stim	s491	False
179.667	0.1	0.458	180.125	0	PA_with_intermediate	test	ward_and_allport	89	13.0	0.458	to_board	poldrack-single-stim	s491	False
180.137	0.1	0.577	180.714	0	PA_with_intermediate	test	ward_and_allport	82	13.0	0.577	to_hand	poldrack-single-stim	s491	False
180.716	0.1	0.441	181.157	0	PA_with_intermediate	test	ward_and_allport	71	13.0	0.441	to_board	poldrack-single-stim	s491	False
181.169	0.1	0.413	181.582	0	PA_with_intermediate	test	ward_and_allport	89	13.0	0.413	to_hand	poldrack-single-stim	s491	False
181.584	0.1	0.445	182.029	0	PA_with_intermediate	test	ward_and_allport	71	13.0	0.445	to_board	poldrack-single-stim	s491	False
182.042	1.0	2.68	182.041	0	PA_with_intermediate	test	ward_and_allport	-1	13.0	n/a	feedback	poldrack-single-stim	s491	False
184.733	5.007	5.007	189.74	1	PA_without_intermediate	test	ward_and_allport	82	14.0	5.007	to_hand	poldrack-single-stim	s491	False
189.744	0.1	0.679	190.423	0	PA_without_intermediate	test	ward_and_allport	71	14.0	0.679	to_board	poldrack-single-stim	s491	False
190.437	0.1	0.363	190.8	0	PA_without_intermediate	test	ward_and_allport	82	14.0	0.363	to_hand	poldrack-single-stim	s491	False
190.802	0.1	0.384	191.186	0	PA_without_intermediate	test	ward_and_allport	71	14.0	0.384	to_board	poldrack-single-stim	s491	False
191.199	0.1	0.365	191.564	0	PA_without_intermediate	test	ward_and_allport	82	14.0	0.365	to_hand	poldrack-single-stim	s491	False
191.567	0.1	0.256	191.823	0	PA_without_intermediate	test	ward_and_allport	89	14.0	0.256	to_board	poldrack-single-stim	s491	False
191.837	1.0	3.224	191.836	0	PA_without_intermediate	test	ward_and_allport	-1	14.0	n/a	feedback	poldrack-single-stim	s491	False
200.079	4.49	4.49	204.569	1	PA_without_intermediate	test	ward_and_allport	82	15.0	4.49	to_hand	poldrack-single-stim	s491	False
204.571	0.1	0.337	204.908	0	PA_without_intermediate	test	ward_and_allport	71	15.0	0.337	to_board	poldrack-single-stim	s491	False
204.922	0.1	0.43	205.352	0	PA_without_intermediate	test	ward_and_allport	82	15.0	0.43	to_hand	poldrack-single-stim	s491	False
205.354	0.1	0.363	205.717	0	PA_without_intermediate	test	ward_and_allport	71	15.0	0.363	to_board	poldrack-single-stim	s491	False
205.729	0.1	0.426	206.155	0	PA_without_intermediate	test	ward_and_allport	82	15.0	0.426	to_hand	poldrack-single-stim	s491	False
206.157	0.1	0.321	206.478	0	PA_without_intermediate	test	ward_and_allport	89	15.0	0.321	to_board	poldrack-single-stim	s491	False
206.494	1.0	3.36	206.493	0	PA_without_intermediate	test	ward_and_allport	-1	15.0	n/a	feedback	poldrack-single-stim	s491	False
209.867	3.298	3.298	213.165	1	PA_without_intermediate	test	ward_and_allport	89	16.0	3.298	to_hand	poldrack-single-stim	s491	False
213.168	0.1	0.392	213.56	0	PA_without_intermediate	test	ward_and_allport	71	16.0	0.392	to_board	poldrack-single-stim	s491	False
213.571	0.1	0.294	213.865	0	PA_without_intermediate	test	ward_and_allport	89	16.0	0.294	to_hand	poldrack-single-stim	s491	False
213.867	0.1	0.267	214.134	0	PA_without_intermediate	test	ward_and_allport	82	16.0	0.267	to_board	poldrack-single-stim	s491	False
214.145	0.1	0.28	214.425	0	PA_without_intermediate	test	ward_and_allport	89	16.0	0.28	to_hand	poldrack-single-stim	s491	False
214.427	0.1	0.219	214.646	0	PA_without_intermediate	test	ward_and_allport	71	16.0	0.219	to_board	poldrack-single-stim	s491	False
214.661	1.0	2.0	214.66	0	PA_without_intermediate	test	ward_and_allport	-1	16.0	n/a	feedback	poldrack-single-stim	s491	False
216.674	3.198	3.198	219.872	1	PA_without_intermediate	test	ward_and_allport	71	17.0	3.198	to_hand	poldrack-single-stim	s491	False
219.874	0.1	0.588	220.462	0	PA_without_intermediate	test	ward_and_allport	82	17.0	0.588	to_board	poldrack-single-stim	s491	False
220.476	0.1	0.432	220.908	0	PA_without_intermediate	test	ward_and_allport	71	17.0	0.432	to_hand	poldrack-single-stim	s491	False
220.91	0.1	0.44	221.35	0	PA_without_intermediate	test	ward_and_allport	82	17.0	0.44	to_board	poldrack-single-stim	s491	False
221.364	0.1	0.397	221.761	0	PA_without_intermediate	test	ward_and_allport	71	17.0	0.397	to_hand	poldrack-single-stim	s491	False
221.763	0.1	0.295	222.058	0	PA_without_intermediate	test	ward_and_allport	89	17.0	0.295	to_board	poldrack-single-stim	s491	False
222.071	1.0	2.408	222.07	0	PA_without_intermediate	test	ward_and_allport	-1	17.0	n/a	feedback	poldrack-single-stim	s491	False
224.495	3.258	3.258	227.753	1	PA_with_intermediate	test	ward_and_allport	89	18.0	3.258	to_hand	poldrack-single-stim	s491	False
227.756	0.1	0.404	228.16	0	PA_with_intermediate	test	ward_and_allport	71	18.0	0.404	to_board	poldrack-single-stim	s491	False
228.171	0.1	0.367	228.538	0	PA_with_intermediate	test	ward_and_allport	89	18.0	0.367	to_hand	poldrack-single-stim	s491	False
228.541	0.1	0.427	228.968	0	PA_with_intermediate	test	ward_and_allport	82	18.0	0.427	to_board	poldrack-single-stim	s491	False
228.981	0.1	1.628	230.609	0	PA_with_intermediate	test	ward_and_allport	71	18.0	1.628	to_hand	poldrack-single-stim	s491	False
230.611	0.1	0.233	230.844	0	PA_with_intermediate	test	ward_and_allport	82	18.0	0.233	to_board	poldrack-single-stim	s491	False
230.861	1.0	2.136	230.86	0	PA_with_intermediate	test	ward_and_allport	-1	18.0	n/a	feedback	poldrack-single-stim	s491	False
233.008	4.206	4.206	237.214	1	PA_without_intermediate	test	ward_and_allport	82	19.0	4.206	to_hand	poldrack-single-stim	s491	False
237.216	0.1	0.495	237.711	0	PA_without_intermediate	test	ward_and_allport	89	19.0	0.495	to_board	poldrack-single-stim	s491	False
237.728	0.1	1.972	239.7	0	PA_without_intermediate	test	ward_and_allport	82	19.0	1.972	to_hand	poldrack-single-stim	s491	False
239.702	0.1	0.696	240.398	0	PA_without_intermediate	test	ward_and_allport	89	19.0	0.696	to_board	poldrack-single-stim	s491	False
240.414	0.1	0.422	240.836	0	PA_without_intermediate	test	ward_and_allport	82	19.0	0.422	to_hand	poldrack-single-stim	s491	False
240.838	0.1	0.185	241.023	0	PA_without_intermediate	test	ward_and_allport	71	19.0	0.185	to_board	poldrack-single-stim	s491	False
241.038	1.0	5.128	241.037	0	PA_without_intermediate	test	ward_and_allport	-1	19.0	n/a	feedback	poldrack-single-stim	s491	False
246.181	4.783	4.783	250.964	1	PA_without_intermediate	test	ward_and_allport	82	20.0	4.783	to_hand	poldrack-single-stim	s491	False
250.966	0.1	0.559	251.525	0	PA_without_intermediate	test	ward_and_allport	71	20.0	0.559	to_board	poldrack-single-stim	s491	False
251.542	0.1	1.256	252.798	0	PA_without_intermediate	test	ward_and_allport	82	20.0	1.256	to_hand	poldrack-single-stim	s491	False
252.8	0.1	0.358	253.158	0	PA_without_intermediate	test	ward_and_allport	89	20.0	0.358	to_board	poldrack-single-stim	s491	False
253.176	0.1	0.561	253.737	0	PA_without_intermediate	test	ward_and_allport	82	20.0	0.561	to_hand	poldrack-single-stim	s491	False
253.739	0.1	0.253	253.992	0	PA_without_intermediate	test	ward_and_allport	71	20.0	0.253	to_board	poldrack-single-stim	s491	False
254.008	1.0	2.136	254.007	0	PA_without_intermediate	test	ward_and_allport	-1	20.0	n/a	feedback	poldrack-single-stim	s491	False
256.161	3.146	3.146	259.307	1	PA_without_intermediate	test	ward_and_allport	82	21.0	3.146	to_hand	poldrack-single-stim	s491	False
259.309	0.1	0.478	259.787	0	PA_without_intermediate	test	ward_and_allport	89	21.0	0.478	to_board	poldrack-single-stim	s491	False
259.803	0.1	0.39	260.193	0	PA_without_intermediate	test	ward_and_allport	82	21.0	0.39	to_hand	poldrack-single-stim	s491	False
260.195	0.1	0.363	260.558	0	PA_without_intermediate	test	ward_and_allport	89	21.0	0.363	to_board	poldrack-single-stim	s491	False
260.572	0.1	0.654	261.226	0	PA_without_intermediate	test	ward_and_allport	82	21.0	0.654	to_hand	poldrack-single-stim	s491	False
261.228	0.1	0.179	261.407	0	PA_without_intermediate	test	ward_and_allport	71	21.0	0.179	to_board	poldrack-single-stim	s491	False
261.425	1.0	5.264	261.424	0	PA_without_intermediate	test	ward_and_allport	-1	21.0	n/a	feedback	poldrack-single-stim	s491	False
266.703	3.354	3.354	270.057	1	PA_with_intermediate	test	ward_and_allport	89	22.0	3.354	to_hand	poldrack-single-stim	s491	False
270.059	0.1	0.502	270.561	0	PA_with_intermediate	test	ward_and_allport	82	22.0	0.502	to_board	poldrack-single-stim	s491	False
270.58	0.1	0.392	270.972	0	PA_with_intermediate	test	ward_and_allport	89	22.0	0.392	to_hand	poldrack-single-stim	s491	False
270.973	0.1	0.602	271.575	0	PA_with_intermediate	test	ward_and_allport	71	22.0	0.602	to_board	poldrack-single-stim	s491	False
271.593	0.1	0.445	272.038	0	PA_with_intermediate	test	ward_and_allport	82	22.0	0.445	to_hand	poldrack-single-stim	s491	False
272.04	0.1	0.344	272.384	0	PA_with_intermediate	test	ward_and_allport	89	22.0	0.344	to_board	poldrack-single-stim	s491	False
272.4	1.0	4.04	272.399	0	PA_with_intermediate	test	ward_and_allport	-1	22.0	n/a	feedback	poldrack-single-stim	s491	False
276.458	4.698	4.698	281.156	1	PA_with_intermediate	test	ward_and_allport	71	23.0	4.698	to_hand	poldrack-single-stim	s491	False
281.158	0.1	0.564	281.722	0	PA_with_intermediate	test	ward_and_allport	82	23.0	0.564	to_board	poldrack-single-stim	s491	False
281.741	0.1	0.462	282.203	0	PA_with_intermediate	test	ward_and_allport	71	23.0	0.462	to_hand	poldrack-single-stim	s491	False
282.205	0.1	0.336	282.541	0	PA_with_intermediate	test	ward_and_allport	89	23.0	0.336	to_board	poldrack-single-stim	s491	False
282.557	0.1	0.496	283.053	0	PA_with_intermediate	test	ward_and_allport	82	23.0	0.496	to_hand	poldrack-single-stim	s491	False
283.055	0.1	0.312	283.367	0	PA_with_intermediate	test	ward_and_allport	89	23.0	0.312	to_board	poldrack-single-stim	s491	False
283.384	1.0	2.136	283.383	0	PA_with_intermediate	test	ward_and_allport	-1	23.0	n/a	feedback	poldrack-single-stim	s491	False
285.535	3.759	3.759	289.294	1	PA_with_intermediate	test	ward_and_allport	82	24.0	3.759	to_hand	poldrack-single-stim	s491	False
289.296	0.1	0.974	290.27	0	PA_with_intermediate	test	ward_and_allport	71	24.0	0.974	to_board	poldrack-single-stim	s491	False
290.288	0.1	0.38	290.668	0	PA_with_intermediate	test	ward_and_allport	82	24.0	0.38	to_hand	poldrack-single-stim	s491	False
290.671	0.1	0.583	291.254	0	PA_with_intermediate	test	ward_and_allport	89	24.0	0.583	to_board	poldrack-single-stim	s491	False
291.269	0.1	0.327	291.596	0	PA_with_intermediate	test	ward_and_allport	71	24.0	0.327	to_hand	poldrack-single-stim	s491	False
291.598	0.1	0.465	292.063	0	PA_with_intermediate	test	ward_and_allport	82	24.0	0.465	to_board	poldrack-single-stim	s491	False
292.082	1.0	2.408	292.081	0	PA_with_intermediate	test	ward_and_allport	-1	24.0	n/a	feedback	poldrack-single-stim	s491	False
294.51	2.826	2.826	297.336	1	PA_without_intermediate	test	ward_and_allport	71	25.0	2.826	to_hand	poldrack-single-stim	s491	False
297.338	0.1	0.386	297.724	0	PA_without_intermediate	test	ward_and_allport	89	25.0	0.386	to_board	poldrack-single-stim	s491	False
297.741	0.1	0.615	298.356	0	PA_without_intermediate	test	ward_and_allport	71	25.0	0.615	to_hand	poldrack-single-stim	s491	False
298.359	0.1	0.581	298.94	0	PA_without_intermediate	test	ward_and_allport	89	25.0	0.581	to_board	poldrack-single-stim	s491	False
298.959	0.1	0.328	299.287	0	PA_without_intermediate	test	ward_and_allport	71	25.0	0.328	to_hand	poldrack-single-stim	s491	False
299.29	0.1	0.233	299.523	0	PA_without_intermediate	test	ward_and_allport	82	25.0	0.233	to_board	poldrack-single-stim	s491	False
299.544	1.0	2.68	299.543	0	PA_without_intermediate	test	ward_and_allport	-1	25.0	n/a	feedback	poldrack-single-stim	s491	False
302.242	3.19	3.19	305.432	1	PA_with_intermediate	test	ward_and_allport	82	26.0	3.19	to_hand	poldrack-single-stim	s491	False
305.434	0.1	2.152	307.586	0	PA_with_intermediate	test	ward_and_allport	89	26.0	2.152	to_board	poldrack-single-stim	s491	False
307.604	0.1	0.415	308.019	0	PA_with_intermediate	test	ward_and_allport	82	26.0	0.415	to_hand	poldrack-single-stim	s491	False
308.022	0.1	0.329	308.351	0	PA_with_intermediate	test	ward_and_allport	71	26.0	0.329	to_board	poldrack-single-stim	s491	False
308.37	0.1	0.568	308.938	0	PA_with_intermediate	test	ward_and_allport	89	26.0	0.568	to_hand	poldrack-single-stim	s491	False
308.94	0.1	0.275	309.215	0	PA_with_intermediate	test	ward_and_allport	82	26.0	0.275	to_board	poldrack-single-stim	s491	False
309.233	1.0	4.72	309.232	0	PA_with_intermediate	test	ward_and_allport	-1	26.0	n/a	feedback	poldrack-single-stim	s491	False
313.974	2.642	2.642	316.616	1	PA_without_intermediate	test	ward_and_allport	71	27.0	2.642	to_hand	poldrack-single-stim	s491	False
316.62	0.1	0.71	317.33	0	PA_without_intermediate	test	ward_and_allport	82	27.0	0.71	to_board	poldrack-single-stim	s491	False
317.347	0.1	0.407	317.754	0	PA_without_intermediate	test	ward_and_allport	71	27.0	0.407	to_hand	poldrack-single-stim	s491	False
317.756	0.1	0.323	318.079	0	PA_without_intermediate	test	ward_and_allport	89	27.0	0.323	to_board	poldrack-single-stim	s491	False
318.095	0.1	0.398	318.493	0	PA_without_intermediate	test	ward_and_allport	71	27.0	0.398	to_hand	poldrack-single-stim	s491	False
318.497	0.1	0.313	318.81	0	PA_without_intermediate	test	ward_and_allport	82	27.0	0.313	to_board	poldrack-single-stim	s491	False
318.83	1.0	3.224	318.829	0	PA_without_intermediate	test	ward_and_allport	-1	27.0	n/a	feedback	poldrack-single-stim	s491	False
322.076	2.663	2.663	324.739	1	PA_without_intermediate	test	ward_and_allport	82	28.0	2.663	to_hand	poldrack-single-stim	s491	False
324.741	0.1	0.369	325.11	0	PA_without_intermediate	test	ward_and_allport	89	28.0	0.369	to_board	poldrack-single-stim	s491	False
325.132	0.1	4.36	329.492	0	PA_without_intermediate	test	ward_and_allport	82	28.0	4.36	to_hand	poldrack-single-stim	s491	False
329.494	0.1	0.361	329.855	0	PA_without_intermediate	test	ward_and_allport	71	28.0	0.361	to_board	poldrack-single-stim	s491	False
329.879	0.1	0.483	330.362	0	PA_without_intermediate	test	ward_and_allport	82	28.0	0.483	to_hand	poldrack-single-stim	s491	False
330.365	0.1	0.289	330.654	0	PA_without_intermediate	test	ward_and_allport	89	28.0	0.289	to_board	poldrack-single-stim	s491	False
330.677	1.0	2.272	330.676	0	PA_without_intermediate	test	ward_and_allport	-1	28.0	n/a	feedback	poldrack-single-stim	s491	False
332.97	2.836	2.836	335.806	1	PA_with_intermediate	test	ward_and_allport	71	29.0	2.836	to_hand	poldrack-single-stim	s491	False
335.808	0.1	0.892	336.7	0	PA_with_intermediate	test	ward_and_allport	89	29.0	0.892	to_board	poldrack-single-stim	s491	False
336.724	0.1	0.422	337.146	0	PA_with_intermediate	test	ward_and_allport	71	29.0	0.422	to_hand	poldrack-single-stim	s491	False
337.148	0.1	0.401	337.549	0	PA_with_intermediate	test	ward_and_allport	82	29.0	0.401	to_board	poldrack-single-stim	s491	False
337.573	0.1	0.999	338.572	0	PA_with_intermediate	test	ward_and_allport	89	29.0	0.999	to_hand	poldrack-single-stim	s491	False
338.575	0.1	0.209	338.784	0	PA_with_intermediate	test	ward_and_allport	82	29.0	0.209	to_board	poldrack-single-stim	s491	False
338.802	1.0	3.632	338.801	0	PA_with_intermediate	test	ward_and_allport	-1	29.0	n/a	feedback	poldrack-single-stim	s491	False
347.458	3.204	3.204	350.662	1	PA_without_intermediate	test	ward_and_allport	89	30.0	3.204	to_hand	poldrack-single-stim	s491	False
350.664	0.1	0.696	351.36	0	PA_without_intermediate	test	ward_and_allport	71	30.0	0.696	to_board	poldrack-single-stim	s491	False
351.385	0.1	0.362	351.747	0	PA_without_intermediate	test	ward_and_allport	89	30.0	0.362	to_hand	poldrack-single-stim	s491	False
351.749	0.1	0.367	352.116	0	PA_without_intermediate	test	ward_and_allport	82	30.0	0.367	to_board	poldrack-single-stim	s491	False
352.137	0.1	0.654	352.791	0	PA_without_intermediate	test	ward_and_allport	89	30.0	0.654	to_hand	poldrack-single-stim	s491	False
352.793	0.1	0.238	353.031	0	PA_without_intermediate	test	ward_and_allport	71	30.0	0.238	to_board	poldrack-single-stim	s491	False
353.051	1.0	2.408	353.05	0	PA_without_intermediate	test	ward_and_allport	-1	30.0	n/a	feedback	poldrack-single-stim	s491	False
355.475	3.823	3.823	359.298	1	PA_without_intermediate	test	ward_and_allport	82	31.0	3.823	to_hand	poldrack-single-stim	s491	False
359.3	0.1	0.37	359.67	0	PA_without_intermediate	test	ward_and_allport	71	31.0	0.37	to_board	poldrack-single-stim	s491	False
359.69	0.1	0.814	360.504	0	PA_without_intermediate	test	ward_and_allport	82	31.0	0.814	to_hand	poldrack-single-stim	s491	False
360.506	0.1	0.242	360.748	0	PA_without_intermediate	test	ward_and_allport	89	31.0	0.242	to_board	poldrack-single-stim	s491	False
360.769	0.1	0.41	361.179	0	PA_without_intermediate	test	ward_and_allport	82	31.0	0.41	to_hand	poldrack-single-stim	s491	False
361.181	0.1	0.275	361.456	0	PA_without_intermediate	test	ward_and_allport	71	31.0	0.275	to_board	poldrack-single-stim	s491	False
361.477	1.0	2.0	361.476	0	PA_without_intermediate	test	ward_and_allport	-1	31.0	n/a	feedback	poldrack-single-stim	s491	False
363.495	4.196	4.196	367.691	1	PA_with_intermediate	test	ward_and_allport	71	32.0	4.196	to_hand	poldrack-single-stim	s491	False
367.694	0.1	0.895	368.589	0	PA_with_intermediate	test	ward_and_allport	82	32.0	0.895	to_board	poldrack-single-stim	s491	False
368.612	0.1	0.52	369.132	0	PA_with_intermediate	test	ward_and_allport	71	32.0	0.52	to_hand	poldrack-single-stim	s491	False
369.135	0.1	0.41	369.545	0	PA_with_intermediate	test	ward_and_allport	89	32.0	0.41	to_board	poldrack-single-stim	s491	False
369.567	0.1	1.029	370.596	0	PA_with_intermediate	test	ward_and_allport	82	32.0	1.029	to_hand	poldrack-single-stim	s491	False
370.598	0.1	0.276	370.874	0	PA_with_intermediate	test	ward_and_allport	89	32.0	0.276	to_board	poldrack-single-stim	s491	False
370.904	1.0	2.0	370.903	0	PA_with_intermediate	test	ward_and_allport	-1	32.0	n/a	feedback	poldrack-single-stim	s491	False
372.926	3.755	3.755	376.681	1	PA_with_intermediate	test	ward_and_allport	71	33.0	3.755	to_hand	poldrack-single-stim	s491	False
376.683	0.1	0.345	377.028	0	PA_with_intermediate	test	ward_and_allport	82	33.0	0.345	to_board	poldrack-single-stim	s491	False
377.053	0.1	0.272	377.325	0	PA_with_intermediate	test	ward_and_allport	71	33.0	0.272	to_hand	poldrack-single-stim	s491	False
377.327	0.1	0.312	377.639	0	PA_with_intermediate	test	ward_and_allport	89	33.0	0.312	to_board	poldrack-single-stim	s491	False
377.662	0.1	2.385	380.047	0	PA_with_intermediate	test	ward_and_allport	82	33.0	2.385	to_hand	poldrack-single-stim	s491	False
380.05	0.1	0.246	380.296	0	PA_with_intermediate	test	ward_and_allport	71	33.0	0.246	to_board	poldrack-single-stim	s491	False
380.32	1.0	2.0	380.319	0	PA_with_intermediate	test	ward_and_allport	-1	33.0	n/a	feedback	poldrack-single-stim	s491	False
382.342	4.687	4.687	387.029	1	PA_with_intermediate	test	ward_and_allport	82	34.0	4.687	to_hand	poldrack-single-stim	s491	False
387.032	0.1	0.319	387.351	0	PA_with_intermediate	test	ward_and_allport	71	34.0	0.319	to_board	poldrack-single-stim	s491	False
387.374	0.1	0.307	387.681	0	PA_with_intermediate	test	ward_and_allport	82	34.0	0.307	to_hand	poldrack-single-stim	s491	False
387.683	0.1	0.345	388.028	0	PA_with_intermediate	test	ward_and_allport	89	34.0	0.345	to_board	poldrack-single-stim	s491	False
388.05	0.1	0.381	388.431	0	PA_with_intermediate	test	ward_and_allport	71	34.0	0.381	to_hand	poldrack-single-stim	s491	False
388.434	0.1	0.265	388.699	0	PA_with_intermediate	test	ward_and_allport	89	34.0	0.265	to_board	poldrack-single-stim	s491	False
388.724	1.0	2.408	388.723	0	PA_with_intermediate	test	ward_and_allport	-1	34.0	n/a	feedback	poldrack-single-stim	s491	False
391.151	3.679	3.679	394.83	1	PA_without_intermediate	test	ward_and_allport	71	35.0	3.679	to_hand	poldrack-single-stim	s491	False
394.832	0.1	0.461	395.293	0	PA_without_intermediate	test	ward_and_allport	89	35.0	0.461	to_board	poldrack-single-stim	s491	False
395.313	0.1	0.353	395.666	0	PA_without_intermediate	test	ward_and_allport	71	35.0	0.353	to_hand	poldrack-single-stim	s491	False
395.668	0.1	0.522	396.19	0	PA_without_intermediate	test	ward_and_allport	82	35.0	0.522	to_board	poldrack-single-stim	s491	False
396.213	0.1	0.253	396.466	0	PA_without_intermediate	test	ward_and_allport	71	35.0	0.253	to_hand	poldrack-single-stim	s491	False
396.47	0.1	0.256	396.726	0	PA_without_intermediate	test	ward_and_allport	89	35.0	0.256	to_board	poldrack-single-stim	s491	False
396.748	1.0	2.816	396.747	0	PA_without_intermediate	test	ward_and_allport	-1	35.0	n/a	feedback	poldrack-single-stim	s491	False
399.586	5.047	5.047	404.633	1	PA_with_intermediate	test	ward_and_allport	89	36.0	5.047	to_hand	poldrack-single-stim	s491	False
404.635	0.1	0.405	405.04	0	PA_with_intermediate	test	ward_and_allport	82	36.0	0.405	to_board	poldrack-single-stim	s491	False
405.064	0.1	0.937	406.001	0	PA_with_intermediate	test	ward_and_allport	89	36.0	0.937	to_hand	poldrack-single-stim	s491	False
406.004	0.1	0.381	406.385	0	PA_with_intermediate	test	ward_and_allport	71	36.0	0.381	to_board	poldrack-single-stim	s491	False
406.409	0.1	0.453	406.862	0	PA_with_intermediate	test	ward_and_allport	82	36.0	0.453	to_hand	poldrack-single-stim	s491	False
406.865	0.1	0.292	407.157	0	PA_with_intermediate	test	ward_and_allport	71	36.0	0.292	to_board	poldrack-single-stim	s491	False
407.18	1.0	4.176	407.179	0	PA_with_intermediate	test	ward_and_allport	-1	36.0	n/a	feedback	poldrack-single-stim	s491	False
411.38	3.852	3.852	415.232	1	PA_with_intermediate	test	ward_and_allport	71	37.0	3.852	to_hand	poldrack-single-stim	s491	False
415.234	0.1	0.563	415.797	0	PA_with_intermediate	test	ward_and_allport	82	37.0	0.563	to_board	poldrack-single-stim	s491	False
415.82	0.1	0.322	416.142	0	PA_with_intermediate	test	ward_and_allport	71	37.0	0.322	to_hand	poldrack-single-stim	s491	False
416.144	0.1	0.406	416.55	0	PA_with_intermediate	test	ward_and_allport	89	37.0	0.406	to_board	poldrack-single-stim	s491	False
416.577	0.1	0.34	416.917	0	PA_with_intermediate	test	ward_and_allport	82	37.0	0.34	to_hand	poldrack-single-stim	s491	False
416.92	0.1	0.192	417.112	0	PA_with_intermediate	test	ward_and_allport	71	37.0	0.192	to_board	poldrack-single-stim	s491	False
417.133	1.0	3.36	417.132	0	PA_with_intermediate	test	ward_and_allport	-1	37.0	n/a	feedback	poldrack-single-stim	s491	False
420.521	2.925	2.925	423.446	1	PA_with_intermediate	test	ward_and_allport	82	38.0	2.925	to_hand	poldrack-single-stim	s491	False
423.448	0.1	0.374	423.822	0	PA_with_intermediate	test	ward_and_allport	71	38.0	0.374	to_board	poldrack-single-stim	s491	False
423.838	0.1	0.861	424.699	0	PA_with_intermediate	test	ward_and_allport	82	38.0	0.861	to_hand	poldrack-single-stim	s491	False
424.701	0.1	0.373	425.074	0	PA_with_intermediate	test	ward_and_allport	89	38.0	0.373	to_board	poldrack-single-stim	s491	False
425.101	0.1	0.325	425.426	0	PA_with_intermediate	test	ward_and_allport	71	38.0	0.325	to_hand	poldrack-single-stim	s491	False
425.428	0.1	0.241	425.669	0	PA_with_intermediate	test	ward_and_allport	89	38.0	0.241	to_board	poldrack-single-stim	s491	False
425.694	1.0	2.0	425.693	0	PA_with_intermediate	test	ward_and_allport	-1	38.0	n/a	feedback	poldrack-single-stim	s491	False
427.713	3.522	3.522	431.235	1	PA_without_intermediate	test	ward_and_allport	71	39.0	3.522	to_hand	poldrack-single-stim	s491	False
431.237	0.1	0.426	431.663	0	PA_without_intermediate	test	ward_and_allport	82	39.0	0.426	to_board	poldrack-single-stim	s491	False
431.682	0.1	1.53	433.212	0	PA_without_intermediate	test	ward_and_allport	71	39.0	1.53	to_hand	poldrack-single-stim	s491	False
433.214	0.1	0.382	433.596	0	PA_without_intermediate	test	ward_and_allport	82	39.0	0.382	to_board	poldrack-single-stim	s491	False
433.623	0.1	0.816	434.439	0	PA_without_intermediate	test	ward_and_allport	71	39.0	0.816	to_hand	poldrack-single-stim	s491	False
434.44	0.1	0.43	434.87	0	PA_without_intermediate	test	ward_and_allport	89	39.0	0.43	to_board	poldrack-single-stim	s491	False
434.896	1.0	2.408	434.895	0	PA_without_intermediate	test	ward_and_allport	-1	39.0	n/a	feedback	poldrack-single-stim	s491	False
437.328	3.081	3.081	440.409	1	PA_with_intermediate	test	ward_and_allport	89	40.0	3.081	to_hand	poldrack-single-stim	s491	False
440.411	0.1	0.851	441.262	0	PA_with_intermediate	test	ward_and_allport	71	40.0	0.851	to_board	poldrack-single-stim	s491	False
441.286	0.1	0.338	441.624	0	PA_with_intermediate	test	ward_and_allport	89	40.0	0.338	to_hand	poldrack-single-stim	s491	False
441.627	0.1	0.31	441.937	0	PA_with_intermediate	test	ward_and_allport	82	40.0	0.31	to_board	poldrack-single-stim	s491	False
441.964	0.1	0.349	442.313	0	PA_with_intermediate	test	ward_and_allport	71	40.0	0.349	to_hand	poldrack-single-stim	s491	False
442.316	0.1	0.233	442.549	0	PA_with_intermediate	test	ward_and_allport	89	40.0	0.233	to_board	poldrack-single-stim	s491	False
442.575	1.0	2.816	442.574	0	PA_with_intermediate	test	ward_and_allport	-1	40.0	n/a	feedback	poldrack-single-stim	s491	False
445.408	2.636	2.636	448.044	1	PA_without_intermediate	test	ward_and_allport	89	41.0	2.636	to_hand	poldrack-single-stim	s491	False
448.047	0.1	0.293	448.34	0	PA_without_intermediate	test	ward_and_allport	82	41.0	0.293	to_board	poldrack-single-stim	s491	False
448.357	0.1	0.734	449.091	0	PA_without_intermediate	test	ward_and_allport	89	41.0	0.734	to_hand	poldrack-single-stim	s491	False
449.093	0.1	0.252	449.345	0	PA_without_intermediate	test	ward_and_allport	71	41.0	0.252	to_board	poldrack-single-stim	s491	False
449.366	0.1	0.393	449.759	0	PA_without_intermediate	test	ward_and_allport	89	41.0	0.393	to_hand	poldrack-single-stim	s491	False
449.761	0.1	0.235	449.996	0	PA_without_intermediate	test	ward_and_allport	82	41.0	0.235	to_board	poldrack-single-stim	s491	False
450.026	1.0	3.088	450.025	0	PA_without_intermediate	test	ward_and_allport	-1	41.0	n/a	feedback	poldrack-single-stim	s491	False
453.141	3.17	3.17	456.311	1	PA_without_intermediate	test	ward_and_allport	82	42.0	3.17	to_hand	poldrack-single-stim	s491	False
456.314	0.1	0.35	456.664	0	PA_without_intermediate	test	ward_and_allport	89	42.0	0.35	to_board	poldrack-single-stim	s491	False
456.686	0.1	0.381	457.067	0	PA_without_intermediate	test	ward_and_allport	82	42.0	0.381	to_hand	poldrack-single-stim	s491	False
457.069	0.1	0.288	457.357	0	PA_without_intermediate	test	ward_and_allport	71	42.0	0.288	to_board	poldrack-single-stim	s491	False
457.38	0.1	0.328	457.708	0	PA_without_intermediate	test	ward_and_allport	82	42.0	0.328	to_hand	poldrack-single-stim	s491	False
457.71	0.1	0.312	458.022	0	PA_without_intermediate	test	ward_and_allport	89	42.0	0.312	to_board	poldrack-single-stim	s491	False
458.044	1.0	2.136	458.043	0	PA_without_intermediate	test	ward_and_allport	-1	42.0	n/a	feedback	poldrack-single-stim	s491	False
460.198	2.399	2.399	462.597	1	PA_without_intermediate	test	ward_and_allport	89	43.0	2.399	to_hand	poldrack-single-stim	s491	False
462.599	0.1	0.252	462.851	0	PA_without_intermediate	test	ward_and_allport	82	43.0	0.252	to_board	poldrack-single-stim	s491	False
462.877	0.1	0.855	463.732	0	PA_without_intermediate	test	ward_and_allport	89	43.0	0.855	to_hand	poldrack-single-stim	s491	False
463.734	0.1	0.683	464.417	0	PA_without_intermediate	test	ward_and_allport	82	43.0	0.683	to_board	poldrack-single-stim	s491	False
464.444	0.1	0.474	464.918	0	PA_without_intermediate	test	ward_and_allport	89	43.0	0.474	to_hand	poldrack-single-stim	s491	False
464.92	0.1	0.194	465.114	0	PA_without_intermediate	test	ward_and_allport	71	43.0	0.194	to_board	poldrack-single-stim	s491	False
465.138	1.0	7.168	465.137	0	PA_without_intermediate	test	ward_and_allport	-1	43.0	n/a	feedback	poldrack-single-stim	s491	False
472.329	2.404	2.404	474.733	1	PA_without_intermediate	test	ward_and_allport	89	44.0	2.404	to_hand	poldrack-single-stim	s491	False
474.735	0.1	0.53	475.265	0	PA_without_intermediate	test	ward_and_allport	82	44.0	0.53	to_board	poldrack-single-stim	s491	False
475.292	0.1	0.337	475.629	0	PA_without_intermediate	test	ward_and_allport	89	44.0	0.337	to_hand	poldrack-single-stim	s491	False
475.631	0.1	0.331	475.962	0	PA_without_intermediate	test	ward_and_allport	71	44.0	0.331	to_board	poldrack-single-stim	s491	False
475.989	0.1	0.298	476.287	0	PA_without_intermediate	test	ward_and_allport	89	44.0	0.298	to_hand	poldrack-single-stim	s491	False
476.289	0.1	0.24	476.529	0	PA_without_intermediate	test	ward_and_allport	82	44.0	0.24	to_board	poldrack-single-stim	s491	False
476.558	1.0	2.816	476.557	0	PA_without_intermediate	test	ward_and_allport	-1	44.0	n/a	feedback	poldrack-single-stim	s491	False
484.401	4.257	4.257	488.658	1	PA_with_intermediate	test	ward_and_allport	82	45.0	4.257	to_hand	poldrack-single-stim	s491	False
488.661	0.1	0.67	489.331	0	PA_with_intermediate	test	ward_and_allport	89	45.0	0.67	to_board	poldrack-single-stim	s491	False
489.358	0.1	0.848	490.206	0	PA_with_intermediate	test	ward_and_allport	82	45.0	0.848	to_hand	poldrack-single-stim	s491	False
490.208	0.1	0.393	490.601	0	PA_with_intermediate	test	ward_and_allport	71	45.0	0.393	to_board	poldrack-single-stim	s491	False
490.63	0.1	1.143	491.773	0	PA_with_intermediate	test	ward_and_allport	89	45.0	1.143	to_hand	poldrack-single-stim	s491	False
491.776	0.1	0.237	492.013	0	PA_with_intermediate	test	ward_and_allport	71	45.0	0.237	to_board	poldrack-single-stim	s491	False
492.042	1.0	2.952	492.041	0	PA_with_intermediate	test	ward_and_allport	-1	45.0	n/a	feedback	poldrack-single-stim	s491	False
495.019	5.306	5.306	500.325	1	PA_with_intermediate	test	ward_and_allport	71	46.0	5.306	to_hand	poldrack-single-stim	s491	False
500.327	0.1	0.331	500.658	0	PA_with_intermediate	test	ward_and_allport	89	46.0	0.331	to_board	poldrack-single-stim	s491	False
500.686	0.1	0.415	501.101	0	PA_with_intermediate	test	ward_and_allport	71	46.0	0.415	to_hand	poldrack-single-stim	s491	False
501.103	0.1	0.427	501.53	0	PA_with_intermediate	test	ward_and_allport	82	46.0	0.427	to_board	poldrack-single-stim	s491	False
501.56	0.1	0.37	501.93	0	PA_with_intermediate	test	ward_and_allport	89	46.0	0.37	to_hand	poldrack-single-stim	s491	False
501.932	0.1	0.213	502.145	0	PA_with_intermediate	test	ward_and_allport	71	46.0	0.213	to_board	poldrack-single-stim	s491	False
502.174	1.0	2.136	502.173	0	PA_with_intermediate	test	ward_and_allport	-1	46.0	n/a	feedback	poldrack-single-stim	s491	False
504.339	3.294	3.294	507.633	1	PA_without_intermediate	test	ward_and_allport	71	47.0	3.294	to_hand	poldrack-single-stim	s491	False
507.635	0.1	0.297	507.932	0	PA_without_intermediate	test	ward_and_allport	89	47.0	0.297	to_board	poldrack-single-stim	s491	False
507.961	0.1	0.598	508.559	0	PA_without_intermediate	test	ward_and_allport	71	47.0	0.598	to_hand	poldrack-single-stim	s491	False
508.561	0.1	0.324	508.885	0	PA_without_intermediate	test	ward_and_allport	82	47.0	0.324	to_board	poldrack-single-stim	s491	False
508.908	0.1	0.489	509.397	0	PA_without_intermediate	test	ward_and_allport	71	47.0	0.489	to_hand	poldrack-single-stim	s491	False
509.399	0.1	0.31	509.709	0	PA_without_intermediate	test	ward_and_allport	89	47.0	0.31	to_board	poldrack-single-stim	s491	False
509.732	1.0	2.68	509.731	0	PA_without_intermediate	test	ward_and_allport	-1	47.0	n/a	feedback	poldrack-single-stim	s491	False
