onset	duration	block_duration	movement_onset	planning	condition	exp_stage	experiment_exp_id	key_press	problem_id	response_time	trial_id	trial_type	worker_id	junk
3.007	6.79	6.79	9.797	1	UA_with_intermediate	practice	ward_and_allport	71	0.0	6.79	to_hand	poldrack-single-stim	s555	False
9.798	0.1	2.665	12.463	0	UA_with_intermediate	practice	ward_and_allport	82	0.0	2.665	to_board	poldrack-single-stim	s555	False
12.466	0.1	1.143	13.609	0	UA_with_intermediate	practice	ward_and_allport	71	0.0	1.143	to_hand	poldrack-single-stim	s555	False
13.61	0.1	1.342	14.952	0	UA_with_intermediate	practice	ward_and_allport	89	0.0	1.342	to_board	poldrack-single-stim	s555	False
14.953	0.1	0.944	15.897	0	UA_with_intermediate	practice	ward_and_allport	82	0.0	0.944	to_hand	poldrack-single-stim	s555	False
15.898	0.1	0.832	16.73	0	UA_with_intermediate	practice	ward_and_allport	89	0.0	0.832	to_board	poldrack-single-stim	s555	False
16.734	1.0	2.5	16.733	0	UA_with_intermediate	practice	ward_and_allport	-1	0.0	n/a	feedback	poldrack-single-stim	s555	False
19.237	4.592	4.592	23.829	1	UA_with_intermediate	practice	ward_and_allport	89	1.0	4.592	to_hand	poldrack-single-stim	s555	False
23.829	0.1	1.171	25.0	0	UA_with_intermediate	practice	ward_and_allport	82	1.0	1.171	to_board	poldrack-single-stim	s555	False
25.002	0.1	0.736	25.738	0	UA_with_intermediate	practice	ward_and_allport	71	1.0	0.736	to_hand	poldrack-single-stim	s555	False
25.74	0.1	0.998	26.738	0	UA_with_intermediate	practice	ward_and_allport	89	1.0	0.998	to_board	poldrack-single-stim	s555	False
26.74	0.1	0.908	27.648	0	UA_with_intermediate	practice	ward_and_allport	82	1.0	0.908	to_hand	poldrack-single-stim	s555	False
27.648	0.1	0.945	28.593	0	UA_with_intermediate	practice	ward_and_allport	89	1.0	0.945	to_board	poldrack-single-stim	s555	False
28.596	1.0	2.1	28.595	0	UA_with_intermediate	practice	ward_and_allport	-1	1.0	n/a	feedback	poldrack-single-stim	s555	False
30.697	3.902	3.902	34.599	1	UA_without_intermediate	practice	ward_and_allport	82	2.0	3.902	to_hand	poldrack-single-stim	s555	False
34.599	0.1	0.895	35.494	0	UA_without_intermediate	practice	ward_and_allport	89	2.0	0.895	to_board	poldrack-single-stim	s555	False
35.497	0.1	0.91	36.407	0	UA_without_intermediate	practice	ward_and_allport	71	2.0	0.91	to_hand	poldrack-single-stim	s555	False
36.408	0.1	0.717	37.125	0	UA_without_intermediate	practice	ward_and_allport	89	2.0	0.717	to_board	poldrack-single-stim	s555	False
37.127	0.1	0.849	37.976	0	UA_without_intermediate	practice	ward_and_allport	71	2.0	0.849	to_hand	poldrack-single-stim	s555	False
37.976	0.1	0.793	38.769	0	UA_without_intermediate	practice	ward_and_allport	89	2.0	0.793	to_board	poldrack-single-stim	s555	False
38.774	1.0	2.2	38.773	0	UA_without_intermediate	practice	ward_and_allport	-1	2.0	n/a	feedback	poldrack-single-stim	s555	False
40.975	3.313	3.313	44.288	1	UA_without_intermediate	practice	ward_and_allport	71	3.0	3.313	to_hand	poldrack-single-stim	s555	False
44.289	0.1	1.342	45.631	0	UA_without_intermediate	practice	ward_and_allport	89	3.0	1.342	to_board	poldrack-single-stim	s555	False
45.632	0.1	0.885	46.517	0	UA_without_intermediate	practice	ward_and_allport	82	3.0	0.885	to_hand	poldrack-single-stim	s555	False
46.519	0.1	0.788	47.307	0	UA_without_intermediate	practice	ward_and_allport	89	3.0	0.788	to_board	poldrack-single-stim	s555	False
47.309	0.1	0.825	48.134	0	UA_without_intermediate	practice	ward_and_allport	71	3.0	0.825	to_hand	poldrack-single-stim	s555	False
48.134	0.1	0.878	49.012	0	UA_without_intermediate	practice	ward_and_allport	89	3.0	0.878	to_board	poldrack-single-stim	s555	False
49.016	1.0	2.0	49.015	0	UA_without_intermediate	practice	ward_and_allport	-1	3.0	n/a	feedback	poldrack-single-stim	s555	False
53.021	4.594	4.594	57.615	1	PA_with_intermediate	test	ward_and_allport	71	0.0	4.594	to_hand	poldrack-single-stim	s555	False
57.616	0.1	1.253	58.869	0	PA_with_intermediate	test	ward_and_allport	82	0.0	1.253	to_board	poldrack-single-stim	s555	False
58.87	0.1	0.819	59.689	0	PA_with_intermediate	test	ward_and_allport	71	0.0	0.819	to_hand	poldrack-single-stim	s555	False
59.69	0.1	0.949	60.639	0	PA_with_intermediate	test	ward_and_allport	89	0.0	0.949	to_board	poldrack-single-stim	s555	False
60.641	0.1	2.549	63.19	0	PA_with_intermediate	test	ward_and_allport	82	0.0	2.549	to_hand	poldrack-single-stim	s555	False
63.191	0.1	0.866	64.057	0	PA_with_intermediate	test	ward_and_allport	71	0.0	0.866	to_board	poldrack-single-stim	s555	False
64.06	1.0	3.768	64.059	0	PA_with_intermediate	test	ward_and_allport	-1	0.0	n/a	feedback	poldrack-single-stim	s555	False
67.831	5.302	5.302	73.133	1	PA_with_intermediate	test	ward_and_allport	71	1.0	5.302	to_hand	poldrack-single-stim	s555	False
73.134	0.1	0.778	73.912	0	PA_with_intermediate	test	ward_and_allport	82	1.0	0.778	to_board	poldrack-single-stim	s555	False
73.914	0.1	0.911	74.825	0	PA_with_intermediate	test	ward_and_allport	71	1.0	0.911	to_hand	poldrack-single-stim	s555	False
74.826	0.1	0.89	75.716	0	PA_with_intermediate	test	ward_and_allport	89	1.0	0.89	to_board	poldrack-single-stim	s555	False
75.719	0.1	1.584	77.303	0	PA_with_intermediate	test	ward_and_allport	82	1.0	1.584	to_hand	poldrack-single-stim	s555	False
77.304	0.1	0.814	78.118	0	PA_with_intermediate	test	ward_and_allport	71	1.0	0.814	to_board	poldrack-single-stim	s555	False
78.121	1.0	2.68	78.12	0	PA_with_intermediate	test	ward_and_allport	-1	1.0	n/a	feedback	poldrack-single-stim	s555	False
80.803	4.728	4.728	85.531	1	PA_without_intermediate	test	ward_and_allport	71	2.0	4.728	to_hand	poldrack-single-stim	s555	False
85.532	0.1	1.7	87.232	0	PA_without_intermediate	test	ward_and_allport	89	2.0	1.7	to_board	poldrack-single-stim	s555	False
87.235	0.1	0.967	88.202	0	PA_without_intermediate	test	ward_and_allport	71	2.0	0.967	to_hand	poldrack-single-stim	s555	False
88.203	0.1	0.846	89.049	0	PA_without_intermediate	test	ward_and_allport	89	2.0	0.846	to_board	poldrack-single-stim	s555	False
89.051	0.1	0.801	89.852	0	PA_without_intermediate	test	ward_and_allport	71	2.0	0.801	to_hand	poldrack-single-stim	s555	False
89.853	0.1	0.839	90.692	0	PA_without_intermediate	test	ward_and_allport	82	2.0	0.839	to_board	poldrack-single-stim	s555	False
90.696	1.0	3.224	90.695	0	PA_without_intermediate	test	ward_and_allport	-1	2.0	n/a	feedback	poldrack-single-stim	s555	False
93.923	3.773	3.773	97.696	1	PA_without_intermediate	test	ward_and_allport	89	3.0	3.773	to_hand	poldrack-single-stim	s555	False
97.697	0.1	1.135	98.832	0	PA_without_intermediate	test	ward_and_allport	71	3.0	1.135	to_board	poldrack-single-stim	s555	False
98.835	0.1	1.003	99.838	0	PA_without_intermediate	test	ward_and_allport	89	3.0	1.003	to_hand	poldrack-single-stim	s555	False
99.839	0.1	0.853	100.692	0	PA_without_intermediate	test	ward_and_allport	89	3.0	0.853	to_board	poldrack-single-stim	s555	False
100.695	0.1	1.329	102.024	0	PA_without_intermediate	test	ward_and_allport	89	3.0	1.329	to_hand	poldrack-single-stim	s555	False
102.025	0.1	0.76	102.785	0	PA_without_intermediate	test	ward_and_allport	71	3.0	0.76	to_board	poldrack-single-stim	s555	False
102.787	0.1	0.723	103.51	0	PA_without_intermediate	test	ward_and_allport	89	3.0	0.723	to_hand	poldrack-single-stim	s555	False
103.512	0.1	0.772	104.284	0	PA_without_intermediate	test	ward_and_allport	82	3.0	0.772	to_board	poldrack-single-stim	s555	False
104.288	1.0	3.36	104.287	0	PA_without_intermediate	test	ward_and_allport	-1	3.0	n/a	feedback	poldrack-single-stim	s555	False
107.651	3.166	3.166	110.817	1	PA_without_intermediate	test	ward_and_allport	89	4.0	3.166	to_hand	poldrack-single-stim	s555	False
110.817	0.1	1.051	111.868	0	PA_without_intermediate	test	ward_and_allport	82	4.0	1.051	to_board	poldrack-single-stim	s555	False
111.87	0.1	1.515	113.385	0	PA_without_intermediate	test	ward_and_allport	89	4.0	1.515	to_hand	poldrack-single-stim	s555	False
113.385	0.1	0.894	114.279	0	PA_without_intermediate	test	ward_and_allport	71	4.0	0.894	to_board	poldrack-single-stim	s555	False
114.281	0.1	0.845	115.126	0	PA_without_intermediate	test	ward_and_allport	89	4.0	0.845	to_hand	poldrack-single-stim	s555	False
115.127	0.1	0.992	116.119	0	PA_without_intermediate	test	ward_and_allport	82	4.0	0.992	to_board	poldrack-single-stim	s555	False
116.124	1.0	2.0	116.123	0	PA_without_intermediate	test	ward_and_allport	-1	4.0	n/a	feedback	poldrack-single-stim	s555	False
118.126	4.312	4.312	122.438	1	PA_without_intermediate	test	ward_and_allport	71	5.0	4.312	to_hand	poldrack-single-stim	s555	False
122.438	0.1	1.34	123.778	0	PA_without_intermediate	test	ward_and_allport	82	5.0	1.34	to_board	poldrack-single-stim	s555	False
123.782	0.1	0.801	124.583	0	PA_without_intermediate	test	ward_and_allport	71	5.0	0.801	to_hand	poldrack-single-stim	s555	False
124.585	0.1	0.976	125.561	0	PA_without_intermediate	test	ward_and_allport	89	5.0	0.976	to_board	poldrack-single-stim	s555	False
125.563	0.1	0.963	126.526	0	PA_without_intermediate	test	ward_and_allport	71	5.0	0.963	to_hand	poldrack-single-stim	s555	False
126.527	0.1	0.955	127.482	0	PA_without_intermediate	test	ward_and_allport	82	5.0	0.955	to_board	poldrack-single-stim	s555	False
127.486	1.0	2.408	127.485	0	PA_without_intermediate	test	ward_and_allport	-1	5.0	n/a	feedback	poldrack-single-stim	s555	False
129.898	4.19	4.19	134.088	1	PA_with_intermediate	test	ward_and_allport	89	6.0	4.19	to_hand	poldrack-single-stim	s555	False
134.089	0.1	0.821	134.91	0	PA_with_intermediate	test	ward_and_allport	82	6.0	0.821	to_board	poldrack-single-stim	s555	False
134.912	0.1	0.914	135.826	0	PA_with_intermediate	test	ward_and_allport	89	6.0	0.914	to_hand	poldrack-single-stim	s555	False
135.827	0.1	0.826	136.653	0	PA_with_intermediate	test	ward_and_allport	71	6.0	0.826	to_board	poldrack-single-stim	s555	False
136.655	0.1	0.862	137.517	0	PA_with_intermediate	test	ward_and_allport	82	6.0	0.862	to_hand	poldrack-single-stim	s555	False
137.519	0.1	0.791	138.31	0	PA_with_intermediate	test	ward_and_allport	89	6.0	0.791	to_board	poldrack-single-stim	s555	False
138.314	1.0	2.136	138.313	0	PA_with_intermediate	test	ward_and_allport	-1	6.0	n/a	feedback	poldrack-single-stim	s555	False
140.452	2.948	2.948	143.4	1	PA_without_intermediate	test	ward_and_allport	82	7.0	2.948	to_hand	poldrack-single-stim	s555	False
143.401	0.1	1.573	144.974	0	PA_without_intermediate	test	ward_and_allport	71	7.0	1.573	to_board	poldrack-single-stim	s555	False
144.978	0.1	1.253	146.231	0	PA_without_intermediate	test	ward_and_allport	82	7.0	1.253	to_hand	poldrack-single-stim	s555	False
146.232	0.1	0.857	147.089	0	PA_without_intermediate	test	ward_and_allport	71	7.0	0.857	to_board	poldrack-single-stim	s555	False
147.091	0.1	0.998	148.089	0	PA_without_intermediate	test	ward_and_allport	82	7.0	0.998	to_hand	poldrack-single-stim	s555	False
148.089	0.1	0.948	149.037	0	PA_without_intermediate	test	ward_and_allport	89	7.0	0.948	to_board	poldrack-single-stim	s555	False
149.043	1.0	5.128	149.042	0	PA_without_intermediate	test	ward_and_allport	-1	7.0	n/a	feedback	poldrack-single-stim	s555	False
154.174	3.216	3.216	157.39	1	PA_without_intermediate	test	ward_and_allport	89	8.0	3.216	to_hand	poldrack-single-stim	s555	False
157.391	0.1	0.881	158.272	0	PA_without_intermediate	test	ward_and_allport	71	8.0	0.881	to_board	poldrack-single-stim	s555	False
158.275	0.1	0.906	159.181	0	PA_without_intermediate	test	ward_and_allport	89	8.0	0.906	to_hand	poldrack-single-stim	s555	False
159.182	0.1	0.935	160.117	0	PA_without_intermediate	test	ward_and_allport	82	8.0	0.935	to_board	poldrack-single-stim	s555	False
160.122	0.1	0.838	160.96	0	PA_without_intermediate	test	ward_and_allport	89	8.0	0.838	to_hand	poldrack-single-stim	s555	False
160.96	0.1	0.83	161.79	0	PA_without_intermediate	test	ward_and_allport	71	8.0	0.83	to_board	poldrack-single-stim	s555	False
161.794	1.0	2.136	161.793	0	PA_without_intermediate	test	ward_and_allport	-1	8.0	n/a	feedback	poldrack-single-stim	s555	False
163.934	2.995	2.995	166.929	1	PA_without_intermediate	test	ward_and_allport	89	9.0	2.995	to_hand	poldrack-single-stim	s555	False
166.931	0.1	1.481	168.412	0	PA_without_intermediate	test	ward_and_allport	71	9.0	1.481	to_board	poldrack-single-stim	s555	False
168.415	0.1	0.705	169.12	0	PA_without_intermediate	test	ward_and_allport	89	9.0	0.705	to_hand	poldrack-single-stim	s555	False
169.121	0.1	0.688	169.809	0	PA_without_intermediate	test	ward_and_allport	71	9.0	0.688	to_board	poldrack-single-stim	s555	False
169.812	0.1	0.651	170.463	0	PA_without_intermediate	test	ward_and_allport	89	9.0	0.651	to_hand	poldrack-single-stim	s555	False
170.464	0.1	0.671	171.135	0	PA_without_intermediate	test	ward_and_allport	82	9.0	0.671	to_board	poldrack-single-stim	s555	False
171.14	1.0	5.264	171.139	0	PA_without_intermediate	test	ward_and_allport	-1	9.0	n/a	feedback	poldrack-single-stim	s555	False
176.408	3.939	3.939	180.347	1	PA_with_intermediate	test	ward_and_allport	71	10.0	3.939	to_hand	poldrack-single-stim	s555	False
180.348	0.1	1.086	181.434	0	PA_with_intermediate	test	ward_and_allport	89	10.0	1.086	to_board	poldrack-single-stim	s555	False
181.439	0.1	0.728	182.167	0	PA_with_intermediate	test	ward_and_allport	71	10.0	0.728	to_hand	poldrack-single-stim	s555	False
182.168	0.1	0.931	183.099	0	PA_with_intermediate	test	ward_and_allport	82	10.0	0.931	to_board	poldrack-single-stim	s555	False
183.102	0.1	0.652	183.754	0	PA_with_intermediate	test	ward_and_allport	89	10.0	0.652	to_hand	poldrack-single-stim	s555	False
183.756	0.1	0.662	184.418	0	PA_with_intermediate	test	ward_and_allport	82	10.0	0.662	to_board	poldrack-single-stim	s555	False
184.423	1.0	4.04	184.422	0	PA_with_intermediate	test	ward_and_allport	-1	10.0	n/a	feedback	poldrack-single-stim	s555	False
188.467	4.748	4.748	193.215	1	PA_with_intermediate	test	ward_and_allport	89	11.0	4.748	to_hand	poldrack-single-stim	s555	False
193.216	0.1	1.033	194.249	0	PA_with_intermediate	test	ward_and_allport	71	11.0	1.033	to_board	poldrack-single-stim	s555	False
194.252	0.1	0.89	195.142	0	PA_with_intermediate	test	ward_and_allport	89	11.0	0.89	to_hand	poldrack-single-stim	s555	False
195.142	0.1	0.901	196.043	0	PA_with_intermediate	test	ward_and_allport	82	11.0	0.901	to_board	poldrack-single-stim	s555	False
196.047	0.1	0.774	196.821	0	PA_with_intermediate	test	ward_and_allport	71	11.0	0.774	to_hand	poldrack-single-stim	s555	False
196.821	0.1	0.92	197.741	0	PA_with_intermediate	test	ward_and_allport	82	11.0	0.92	to_board	poldrack-single-stim	s555	False
197.745	1.0	2.136	197.744	0	PA_with_intermediate	test	ward_and_allport	-1	11.0	n/a	feedback	poldrack-single-stim	s555	False
199.884	3.972	3.972	203.856	1	PA_with_intermediate	test	ward_and_allport	82	12.0	3.972	to_hand	poldrack-single-stim	s555	False
203.858	0.1	1.863	205.721	0	PA_with_intermediate	test	ward_and_allport	89	12.0	1.863	to_board	poldrack-single-stim	s555	False
205.725	0.1	0.846	206.571	0	PA_with_intermediate	test	ward_and_allport	82	12.0	0.846	to_hand	poldrack-single-stim	s555	False
206.572	0.1	0.649	207.221	0	PA_with_intermediate	test	ward_and_allport	71	12.0	0.649	to_board	poldrack-single-stim	s555	False
207.226	0.1	0.609	207.835	0	PA_with_intermediate	test	ward_and_allport	89	12.0	0.609	to_hand	poldrack-single-stim	s555	False
207.835	0.1	0.458	208.293	0	PA_with_intermediate	test	ward_and_allport	71	12.0	0.458	to_board	poldrack-single-stim	s555	False
208.298	1.0	2.408	208.297	0	PA_with_intermediate	test	ward_and_allport	-1	12.0	n/a	feedback	poldrack-single-stim	s555	False
210.711	2.836	2.836	213.547	1	PA_without_intermediate	test	ward_and_allport	89	13.0	2.836	to_hand	poldrack-single-stim	s555	False
213.548	0.1	1.001	214.549	0	PA_without_intermediate	test	ward_and_allport	82	13.0	1.001	to_board	poldrack-single-stim	s555	False
214.554	0.1	0.791	215.345	0	PA_without_intermediate	test	ward_and_allport	89	13.0	0.791	to_hand	poldrack-single-stim	s555	False
215.347	0.1	0.687	216.034	0	PA_without_intermediate	test	ward_and_allport	71	13.0	0.687	to_board	poldrack-single-stim	s555	False
216.037	0.1	0.614	216.651	0	PA_without_intermediate	test	ward_and_allport	89	13.0	0.614	to_hand	poldrack-single-stim	s555	False
216.652	0.1	0.574	217.226	0	PA_without_intermediate	test	ward_and_allport	82	13.0	0.574	to_board	poldrack-single-stim	s555	False
217.232	1.0	2.68	217.231	0	PA_without_intermediate	test	ward_and_allport	-1	13.0	n/a	feedback	poldrack-single-stim	s555	False
219.915	2.611	2.611	222.526	1	PA_with_intermediate	test	ward_and_allport	89	14.0	2.611	to_hand	poldrack-single-stim	s555	False
222.527	0.1	0.646	223.173	0	PA_with_intermediate	test	ward_and_allport	82	14.0	0.646	to_board	poldrack-single-stim	s555	False
223.178	0.1	0.661	223.839	0	PA_with_intermediate	test	ward_and_allport	89	14.0	0.661	to_hand	poldrack-single-stim	s555	False
223.839	0.1	0.451	224.29	0	PA_with_intermediate	test	ward_and_allport	71	14.0	0.451	to_board	poldrack-single-stim	s555	False
224.294	0.1	0.601	224.895	0	PA_with_intermediate	test	ward_and_allport	82	14.0	0.601	to_hand	poldrack-single-stim	s555	False
224.896	0.1	0.806	225.702	0	PA_with_intermediate	test	ward_and_allport	71	14.0	0.806	to_board	poldrack-single-stim	s555	False
225.706	1.0	4.72	225.705	0	PA_with_intermediate	test	ward_and_allport	-1	14.0	n/a	feedback	poldrack-single-stim	s555	False
235.433	2.344	2.344	237.777	1	PA_without_intermediate	test	ward_and_allport	89	15.0	2.344	to_hand	poldrack-single-stim	s555	False
237.778	0.1	0.812	238.59	0	PA_without_intermediate	test	ward_and_allport	82	15.0	0.812	to_board	poldrack-single-stim	s555	False
238.594	0.1	0.806	239.4	0	PA_without_intermediate	test	ward_and_allport	89	15.0	0.806	to_hand	poldrack-single-stim	s555	False
239.401	0.1	0.661	240.062	0	PA_without_intermediate	test	ward_and_allport	82	15.0	0.661	to_board	poldrack-single-stim	s555	False
240.066	0.1	0.612	240.678	0	PA_without_intermediate	test	ward_and_allport	89	15.0	0.612	to_hand	poldrack-single-stim	s555	False
240.679	0.1	0.566	241.245	0	PA_without_intermediate	test	ward_and_allport	71	15.0	0.566	to_board	poldrack-single-stim	s555	False
241.251	1.0	3.224	241.25	0	PA_without_intermediate	test	ward_and_allport	-1	15.0	n/a	feedback	poldrack-single-stim	s555	False
244.479	2.153	2.153	246.632	1	PA_without_intermediate	test	ward_and_allport	71	16.0	2.153	to_hand	poldrack-single-stim	s555	False
246.633	0.1	1.273	247.906	0	PA_without_intermediate	test	ward_and_allport	82	16.0	1.273	to_board	poldrack-single-stim	s555	False
247.91	0.1	0.551	248.461	0	PA_without_intermediate	test	ward_and_allport	71	16.0	0.551	to_hand	poldrack-single-stim	s555	False
248.461	0.1	0.562	249.023	0	PA_without_intermediate	test	ward_and_allport	82	16.0	0.562	to_board	poldrack-single-stim	s555	False
249.028	0.1	0.592	249.62	0	PA_without_intermediate	test	ward_and_allport	71	16.0	0.592	to_hand	poldrack-single-stim	s555	False
249.621	0.1	0.484	250.105	0	PA_without_intermediate	test	ward_and_allport	89	16.0	0.484	to_board	poldrack-single-stim	s555	False
250.111	1.0	2.272	250.11	0	PA_without_intermediate	test	ward_and_allport	-1	16.0	n/a	feedback	poldrack-single-stim	s555	False
252.388	2.27	2.27	254.658	1	PA_with_intermediate	test	ward_and_allport	89	17.0	2.27	to_hand	poldrack-single-stim	s555	False
254.659	0.1	0.538	255.197	0	PA_with_intermediate	test	ward_and_allport	82	17.0	0.538	to_board	poldrack-single-stim	s555	False
255.203	0.1	0.766	255.969	0	PA_with_intermediate	test	ward_and_allport	89	17.0	0.766	to_hand	poldrack-single-stim	s555	False
255.969	0.1	0.461	256.43	0	PA_with_intermediate	test	ward_and_allport	71	17.0	0.461	to_board	poldrack-single-stim	s555	False
256.435	0.1	0.93	257.365	0	PA_with_intermediate	test	ward_and_allport	82	17.0	0.93	to_hand	poldrack-single-stim	s555	False
257.365	0.1	0.494	257.859	0	PA_with_intermediate	test	ward_and_allport	71	17.0	0.494	to_board	poldrack-single-stim	s555	False
257.866	1.0	3.632	257.865	0	PA_with_intermediate	test	ward_and_allport	-1	17.0	n/a	feedback	poldrack-single-stim	s555	False
261.502	2.047	2.047	263.549	1	PA_without_intermediate	test	ward_and_allport	82	18.0	2.047	to_hand	poldrack-single-stim	s555	False
263.551	0.1	0.843	264.394	0	PA_without_intermediate	test	ward_and_allport	89	18.0	0.843	to_board	poldrack-single-stim	s555	False
264.399	0.1	0.863	265.262	0	PA_without_intermediate	test	ward_and_allport	82	18.0	0.863	to_hand	poldrack-single-stim	s555	False
265.262	0.1	0.583	265.845	0	PA_without_intermediate	test	ward_and_allport	71	18.0	0.583	to_board	poldrack-single-stim	s555	False
265.85	0.1	0.981	266.831	0	PA_without_intermediate	test	ward_and_allport	82	18.0	0.981	to_hand	poldrack-single-stim	s555	False
266.832	0.1	0.516	267.348	0	PA_without_intermediate	test	ward_and_allport	89	18.0	0.516	to_board	poldrack-single-stim	s555	False
267.353	1.0	2.408	267.352	0	PA_without_intermediate	test	ward_and_allport	-1	18.0	n/a	feedback	poldrack-single-stim	s555	False
269.765	2.178	2.178	271.943	1	PA_without_intermediate	test	ward_and_allport	71	19.0	2.178	to_hand	poldrack-single-stim	s555	False
271.945	0.1	0.735	272.68	0	PA_without_intermediate	test	ward_and_allport	82	19.0	0.735	to_board	poldrack-single-stim	s555	False
272.684	0.1	0.547	273.231	0	PA_without_intermediate	test	ward_and_allport	71	19.0	0.547	to_hand	poldrack-single-stim	s555	False
273.231	0.1	0.486	273.717	0	PA_without_intermediate	test	ward_and_allport	82	19.0	0.486	to_board	poldrack-single-stim	s555	False
273.723	0.1	0.529	274.252	0	PA_without_intermediate	test	ward_and_allport	71	19.0	0.529	to_hand	poldrack-single-stim	s555	False
274.252	0.1	0.485	274.737	0	PA_without_intermediate	test	ward_and_allport	89	19.0	0.485	to_board	poldrack-single-stim	s555	False
274.743	1.0	2.0	274.742	0	PA_without_intermediate	test	ward_and_allport	-1	19.0	n/a	feedback	poldrack-single-stim	s555	False
276.748	3.131	3.131	279.879	1	PA_with_intermediate	test	ward_and_allport	89	20.0	3.131	to_hand	poldrack-single-stim	s555	False
279.879	0.1	1.226	281.105	0	PA_with_intermediate	test	ward_and_allport	71	20.0	1.226	to_board	poldrack-single-stim	s555	False
281.11	0.1	1.244	282.354	0	PA_with_intermediate	test	ward_and_allport	89	20.0	1.244	to_hand	poldrack-single-stim	s555	False
282.356	0.1	0.661	283.017	0	PA_with_intermediate	test	ward_and_allport	82	20.0	0.661	to_board	poldrack-single-stim	s555	False
283.021	0.1	1.214	284.235	0	PA_with_intermediate	test	ward_and_allport	71	20.0	1.214	to_hand	poldrack-single-stim	s555	False
284.237	0.1	0.435	284.672	0	PA_with_intermediate	test	ward_and_allport	89	20.0	0.435	to_board	poldrack-single-stim	s555	False
284.678	1.0	2.0	284.677	0	PA_with_intermediate	test	ward_and_allport	-1	20.0	n/a	feedback	poldrack-single-stim	s555	False
286.684	2.606	2.606	289.29	1	PA_with_intermediate	test	ward_and_allport	89	21.0	2.606	to_hand	poldrack-single-stim	s555	False
289.291	0.1	0.981	290.272	0	PA_with_intermediate	test	ward_and_allport	82	21.0	0.981	to_board	poldrack-single-stim	s555	False
290.277	0.1	0.589	290.866	0	PA_with_intermediate	test	ward_and_allport	89	21.0	0.589	to_hand	poldrack-single-stim	s555	False
290.866	0.1	0.806	291.672	0	PA_with_intermediate	test	ward_and_allport	71	21.0	0.806	to_board	poldrack-single-stim	s555	False
291.676	0.1	0.734	292.41	0	PA_with_intermediate	test	ward_and_allport	82	21.0	0.734	to_hand	poldrack-single-stim	s555	False
292.412	0.1	0.513	292.925	0	PA_with_intermediate	test	ward_and_allport	89	21.0	0.513	to_board	poldrack-single-stim	s555	False
292.932	1.0	2.0	292.931	0	PA_with_intermediate	test	ward_and_allport	-1	21.0	n/a	feedback	poldrack-single-stim	s555	False
294.937	2.265	2.265	297.202	1	PA_with_intermediate	test	ward_and_allport	82	22.0	2.265	to_hand	poldrack-single-stim	s555	False
297.203	0.1	1.786	298.989	0	PA_with_intermediate	test	ward_and_allport	71	22.0	1.786	to_board	poldrack-single-stim	s555	False
298.994	0.1	0.733	299.727	0	PA_with_intermediate	test	ward_and_allport	82	22.0	0.733	to_hand	poldrack-single-stim	s555	False
299.727	0.1	0.672	300.399	0	PA_with_intermediate	test	ward_and_allport	89	22.0	0.672	to_board	poldrack-single-stim	s555	False
300.406	0.1	0.613	301.019	0	PA_with_intermediate	test	ward_and_allport	71	22.0	0.613	to_hand	poldrack-single-stim	s555	False
301.019	0.1	0.508	301.527	0	PA_with_intermediate	test	ward_and_allport	89	22.0	0.508	to_board	poldrack-single-stim	s555	False
301.535	1.0	2.408	301.534	0	PA_with_intermediate	test	ward_and_allport	-1	22.0	n/a	feedback	poldrack-single-stim	s555	False
303.948	1.815	1.815	305.763	1	PA_without_intermediate	test	ward_and_allport	82	23.0	1.815	to_hand	poldrack-single-stim	s555	False
305.764	0.1	1.816	307.58	0	PA_without_intermediate	test	ward_and_allport	71	23.0	1.816	to_board	poldrack-single-stim	s555	False
307.586	0.1	0.944	308.53	0	PA_without_intermediate	test	ward_and_allport	82	23.0	0.944	to_hand	poldrack-single-stim	s555	False
308.531	0.1	0.557	309.088	0	PA_without_intermediate	test	ward_and_allport	89	23.0	0.557	to_board	poldrack-single-stim	s555	False
309.094	0.1	0.525	309.619	0	PA_without_intermediate	test	ward_and_allport	82	23.0	0.525	to_hand	poldrack-single-stim	s555	False
309.62	0.1	0.378	309.998	0	PA_without_intermediate	test	ward_and_allport	71	23.0	0.378	to_board	poldrack-single-stim	s555	False
310.005	1.0	2.816	310.004	0	PA_without_intermediate	test	ward_and_allport	-1	23.0	n/a	feedback	poldrack-single-stim	s555	False
312.828	3.904	3.904	316.732	1	PA_with_intermediate	test	ward_and_allport	82	24.0	3.904	to_hand	poldrack-single-stim	s555	False
316.733	0.1	0.562	317.295	0	PA_with_intermediate	test	ward_and_allport	71	24.0	0.562	to_board	poldrack-single-stim	s555	False
317.302	0.1	0.846	318.148	0	PA_with_intermediate	test	ward_and_allport	82	24.0	0.846	to_hand	poldrack-single-stim	s555	False
318.149	0.1	0.549	318.698	0	PA_with_intermediate	test	ward_and_allport	89	24.0	0.549	to_board	poldrack-single-stim	s555	False
318.704	0.1	0.976	319.68	0	PA_with_intermediate	test	ward_and_allport	71	24.0	0.976	to_hand	poldrack-single-stim	s555	False
319.682	0.1	0.552	320.234	0	PA_with_intermediate	test	ward_and_allport	82	24.0	0.552	to_board	poldrack-single-stim	s555	False
320.241	1.0	4.176	320.24	0	PA_with_intermediate	test	ward_and_allport	-1	24.0	n/a	feedback	poldrack-single-stim	s555	False
324.425	3.434	3.434	327.859	1	PA_with_intermediate	test	ward_and_allport	71	25.0	3.434	to_hand	poldrack-single-stim	s555	False
327.86	0.1	1.126	328.986	0	PA_with_intermediate	test	ward_and_allport	89	25.0	1.126	to_board	poldrack-single-stim	s555	False
328.992	0.1	0.683	329.675	0	PA_with_intermediate	test	ward_and_allport	71	25.0	0.683	to_hand	poldrack-single-stim	s555	False
329.675	0.1	0.958	330.633	0	PA_with_intermediate	test	ward_and_allport	82	25.0	0.958	to_board	poldrack-single-stim	s555	False
330.639	0.1	0.612	331.251	0	PA_with_intermediate	test	ward_and_allport	89	25.0	0.612	to_hand	poldrack-single-stim	s555	False
331.252	0.1	0.534	331.786	0	PA_with_intermediate	test	ward_and_allport	71	25.0	0.534	to_board	poldrack-single-stim	s555	False
331.794	1.0	3.36	331.793	0	PA_with_intermediate	test	ward_and_allport	-1	25.0	n/a	feedback	poldrack-single-stim	s555	False
335.16	2.232	2.232	337.392	1	PA_with_intermediate	test	ward_and_allport	82	26.0	2.232	to_hand	poldrack-single-stim	s555	False
337.393	0.1	0.634	338.027	0	PA_with_intermediate	test	ward_and_allport	71	26.0	0.634	to_board	poldrack-single-stim	s555	False
338.033	0.1	1.2	339.233	0	PA_with_intermediate	test	ward_and_allport	82	26.0	1.2	to_hand	poldrack-single-stim	s555	False
339.234	0.1	0.723	339.957	0	PA_with_intermediate	test	ward_and_allport	89	26.0	0.723	to_board	poldrack-single-stim	s555	False
339.965	0.1	0.738	340.703	0	PA_with_intermediate	test	ward_and_allport	71	26.0	0.738	to_hand	poldrack-single-stim	s555	False
340.704	0.1	0.447	341.151	0	PA_with_intermediate	test	ward_and_allport	82	26.0	0.447	to_board	poldrack-single-stim	s555	False
341.159	1.0	2.0	341.158	0	PA_with_intermediate	test	ward_and_allport	-1	26.0	n/a	feedback	poldrack-single-stim	s555	False
343.166	2.473	2.473	345.639	1	PA_without_intermediate	test	ward_and_allport	71	27.0	2.473	to_hand	poldrack-single-stim	s555	False
345.64	0.1	0.562	346.202	0	PA_without_intermediate	test	ward_and_allport	82	27.0	0.562	to_board	poldrack-single-stim	s555	False
346.209	0.1	0.786	346.995	0	PA_without_intermediate	test	ward_and_allport	71	27.0	0.786	to_hand	poldrack-single-stim	s555	False
346.996	0.1	0.574	347.57	0	PA_without_intermediate	test	ward_and_allport	89	27.0	0.574	to_board	poldrack-single-stim	s555	False
347.577	0.1	0.623	348.2	0	PA_without_intermediate	test	ward_and_allport	71	27.0	0.623	to_hand	poldrack-single-stim	s555	False
348.2	0.1	0.604	348.804	0	PA_without_intermediate	test	ward_and_allport	82	27.0	0.604	to_board	poldrack-single-stim	s555	False
348.812	1.0	2.408	348.811	0	PA_without_intermediate	test	ward_and_allport	-1	27.0	n/a	feedback	poldrack-single-stim	s555	False
351.227	3.486	3.486	354.713	1	PA_with_intermediate	test	ward_and_allport	71	28.0	3.486	to_hand	poldrack-single-stim	s555	False
354.713	0.1	0.684	355.397	0	PA_with_intermediate	test	ward_and_allport	89	28.0	0.684	to_board	poldrack-single-stim	s555	False
355.404	0.1	0.653	356.057	0	PA_with_intermediate	test	ward_and_allport	71	28.0	0.653	to_hand	poldrack-single-stim	s555	False
356.058	0.1	0.647	356.705	0	PA_with_intermediate	test	ward_and_allport	82	28.0	0.647	to_board	poldrack-single-stim	s555	False
356.712	0.1	0.51	357.222	0	PA_with_intermediate	test	ward_and_allport	89	28.0	0.51	to_hand	poldrack-single-stim	s555	False
357.223	0.1	0.53	357.753	0	PA_with_intermediate	test	ward_and_allport	82	28.0	0.53	to_board	poldrack-single-stim	s555	False
357.763	1.0	2.816	357.762	0	PA_with_intermediate	test	ward_and_allport	-1	28.0	n/a	feedback	poldrack-single-stim	s555	False
360.586	1.706	1.706	362.292	1	PA_without_intermediate	test	ward_and_allport	82	29.0	1.706	to_hand	poldrack-single-stim	s555	False
362.293	0.1	0.855	363.148	0	PA_without_intermediate	test	ward_and_allport	89	29.0	0.855	to_board	poldrack-single-stim	s555	False
363.156	0.1	1.323	364.479	0	PA_without_intermediate	test	ward_and_allport	82	29.0	1.323	to_hand	poldrack-single-stim	s555	False
364.479	0.1	0.607	365.086	0	PA_without_intermediate	test	ward_and_allport	89	29.0	0.607	to_board	poldrack-single-stim	s555	False
365.093	0.1	0.781	365.874	0	PA_without_intermediate	test	ward_and_allport	82	29.0	0.781	to_hand	poldrack-single-stim	s555	False
365.876	0.1	0.555	366.431	0	PA_without_intermediate	test	ward_and_allport	71	29.0	0.555	to_board	poldrack-single-stim	s555	False
366.44	1.0	3.088	366.439	0	PA_without_intermediate	test	ward_and_allport	-1	29.0	n/a	feedback	poldrack-single-stim	s555	False
374.538	1.747	1.747	376.285	1	PA_without_intermediate	test	ward_and_allport	71	30.0	1.747	to_hand	poldrack-single-stim	s555	False
376.286	0.1	0.682	376.968	0	PA_without_intermediate	test	ward_and_allport	89	30.0	0.682	to_board	poldrack-single-stim	s555	False
376.975	0.1	0.577	377.552	0	PA_without_intermediate	test	ward_and_allport	71	30.0	0.577	to_hand	poldrack-single-stim	s555	False
377.554	0.1	0.647	378.201	0	PA_without_intermediate	test	ward_and_allport	71	30.0	0.647	to_board	poldrack-single-stim	s555	False
378.208	0.1	0.597	378.805	0	PA_without_intermediate	test	ward_and_allport	71	30.0	0.597	to_hand	poldrack-single-stim	s555	False
378.806	0.1	0.414	379.22	0	PA_without_intermediate	test	ward_and_allport	82	30.0	0.414	to_board	poldrack-single-stim	s555	False
379.227	0.1	0.999	380.226	0	PA_without_intermediate	test	ward_and_allport	71	30.0	0.999	to_hand	poldrack-single-stim	s555	False
380.226	0.1	0.412	380.638	0	PA_without_intermediate	test	ward_and_allport	89	30.0	0.412	to_board	poldrack-single-stim	s555	False
380.647	1.0	2.136	380.646	0	PA_without_intermediate	test	ward_and_allport	-1	30.0	n/a	feedback	poldrack-single-stim	s555	False
382.79	1.734	1.734	384.524	1	PA_without_intermediate	test	ward_and_allport	82	31.0	1.734	to_hand	poldrack-single-stim	s555	False
384.525	0.1	0.736	385.261	0	PA_without_intermediate	test	ward_and_allport	71	31.0	0.736	to_board	poldrack-single-stim	s555	False
385.269	0.1	1.106	386.375	0	PA_without_intermediate	test	ward_and_allport	82	31.0	1.106	to_hand	poldrack-single-stim	s555	False
386.375	0.1	0.442	386.817	0	PA_without_intermediate	test	ward_and_allport	89	31.0	0.442	to_board	poldrack-single-stim	s555	False
386.825	0.1	0.506	387.331	0	PA_without_intermediate	test	ward_and_allport	82	31.0	0.506	to_hand	poldrack-single-stim	s555	False
387.332	0.1	0.402	387.734	0	PA_without_intermediate	test	ward_and_allport	71	31.0	0.402	to_board	poldrack-single-stim	s555	False
387.744	1.0	7.168	387.743	0	PA_without_intermediate	test	ward_and_allport	-1	31.0	n/a	feedback	poldrack-single-stim	s555	False
394.921	1.475	1.475	396.396	1	PA_without_intermediate	test	ward_and_allport	71	32.0	1.475	to_hand	poldrack-single-stim	s555	False
396.398	0.1	0.74	397.138	0	PA_without_intermediate	test	ward_and_allport	89	32.0	0.74	to_board	poldrack-single-stim	s555	False
397.147	0.1	0.505	397.652	0	PA_without_intermediate	test	ward_and_allport	71	32.0	0.505	to_hand	poldrack-single-stim	s555	False
397.652	0.1	0.461	398.113	0	PA_without_intermediate	test	ward_and_allport	89	32.0	0.461	to_board	poldrack-single-stim	s555	False
398.123	0.1	0.356	398.479	0	PA_without_intermediate	test	ward_and_allport	71	32.0	0.356	to_hand	poldrack-single-stim	s555	False
398.48	0.1	0.552	399.032	0	PA_without_intermediate	test	ward_and_allport	82	32.0	0.552	to_board	poldrack-single-stim	s555	False
399.042	1.0	2.816	399.041	0	PA_without_intermediate	test	ward_and_allport	-1	32.0	n/a	feedback	poldrack-single-stim	s555	False
401.867	2.755	2.755	404.622	1	PA_with_intermediate	test	ward_and_allport	71	33.0	2.755	to_hand	poldrack-single-stim	s555	False
404.622	0.1	0.744	405.366	0	PA_with_intermediate	test	ward_and_allport	89	33.0	0.744	to_board	poldrack-single-stim	s555	False
405.373	0.1	0.436	405.809	0	PA_with_intermediate	test	ward_and_allport	71	33.0	0.436	to_hand	poldrack-single-stim	s555	False
405.81	0.1	1.062	406.872	0	PA_with_intermediate	test	ward_and_allport	82	33.0	1.062	to_board	poldrack-single-stim	s555	False
406.879	0.1	0.741	407.62	0	PA_with_intermediate	test	ward_and_allport	89	33.0	0.741	to_hand	poldrack-single-stim	s555	False
407.62	0.1	0.421	408.041	0	PA_with_intermediate	test	ward_and_allport	71	33.0	0.421	to_board	poldrack-single-stim	s555	False
408.052	1.0	2.952	408.051	0	PA_with_intermediate	test	ward_and_allport	-1	33.0	n/a	feedback	poldrack-single-stim	s555	False
411.012	3.135	3.135	414.147	1	PA_with_intermediate	test	ward_and_allport	89	34.0	3.135	to_hand	poldrack-single-stim	s555	False
414.148	0.1	0.874	415.022	0	PA_with_intermediate	test	ward_and_allport	71	34.0	0.874	to_board	poldrack-single-stim	s555	False
415.031	0.1	0.581	415.612	0	PA_with_intermediate	test	ward_and_allport	89	34.0	0.581	to_hand	poldrack-single-stim	s555	False
415.613	0.1	0.498	416.111	0	PA_with_intermediate	test	ward_and_allport	82	34.0	0.498	to_board	poldrack-single-stim	s555	False
416.12	0.1	0.652	416.772	0	PA_with_intermediate	test	ward_and_allport	71	34.0	0.652	to_hand	poldrack-single-stim	s555	False
416.772	0.1	0.371	417.143	0	PA_with_intermediate	test	ward_and_allport	89	34.0	0.371	to_board	poldrack-single-stim	s555	False
417.154	1.0	2.136	417.153	0	PA_with_intermediate	test	ward_and_allport	-1	34.0	n/a	feedback	poldrack-single-stim	s555	False
419.296	1.509	1.509	420.805	1	PA_without_intermediate	test	ward_and_allport	89	35.0	1.509	to_hand	poldrack-single-stim	s555	False
420.806	0.1	0.577	421.383	0	PA_without_intermediate	test	ward_and_allport	82	35.0	0.577	to_board	poldrack-single-stim	s555	False
421.389	0.1	1.227	422.616	0	PA_without_intermediate	test	ward_and_allport	89	35.0	1.227	to_hand	poldrack-single-stim	s555	False
422.618	0.1	0.473	423.091	0	PA_without_intermediate	test	ward_and_allport	82	35.0	0.473	to_board	poldrack-single-stim	s555	False
423.096	0.1	0.53	423.626	0	PA_without_intermediate	test	ward_and_allport	89	35.0	0.53	to_hand	poldrack-single-stim	s555	False
423.628	0.1	0.339	423.967	0	PA_without_intermediate	test	ward_and_allport	71	35.0	0.339	to_board	poldrack-single-stim	s555	False
423.975	1.0	2.68	423.974	0	PA_without_intermediate	test	ward_and_allport	-1	35.0	n/a	feedback	poldrack-single-stim	s555	False
426.663	1.779	1.779	428.442	1	PA_without_intermediate	test	ward_and_allport	82	36.0	1.779	to_hand	poldrack-single-stim	s555	False
428.443	0.1	0.544	428.987	0	PA_without_intermediate	test	ward_and_allport	89	36.0	0.544	to_board	poldrack-single-stim	s555	False
428.995	0.1	2.602	431.597	0	PA_without_intermediate	test	ward_and_allport	82	36.0	2.602	to_hand	poldrack-single-stim	s555	False
431.599	0.1	0.454	432.053	0	PA_without_intermediate	test	ward_and_allport	71	36.0	0.454	to_board	poldrack-single-stim	s555	False
432.064	0.1	0.848	432.912	0	PA_without_intermediate	test	ward_and_allport	82	36.0	0.848	to_hand	poldrack-single-stim	s555	False
432.913	0.1	0.591	433.504	0	PA_without_intermediate	test	ward_and_allport	89	36.0	0.591	to_board	poldrack-single-stim	s555	False
433.515	1.0	3.088	433.514	0	PA_without_intermediate	test	ward_and_allport	-1	36.0	n/a	feedback	poldrack-single-stim	s555	False
436.61	2.797	2.797	439.407	1	PA_with_intermediate	test	ward_and_allport	89	37.0	2.797	to_hand	poldrack-single-stim	s555	False
439.407	0.1	0.375	439.782	0	PA_with_intermediate	test	ward_and_allport	71	37.0	0.375	to_board	poldrack-single-stim	s555	False
439.788	0.1	0.519	440.307	0	PA_with_intermediate	test	ward_and_allport	89	37.0	0.519	to_hand	poldrack-single-stim	s555	False
440.307	0.1	0.406	440.713	0	PA_with_intermediate	test	ward_and_allport	82	37.0	0.406	to_board	poldrack-single-stim	s555	False
440.722	0.1	0.427	441.149	0	PA_with_intermediate	test	ward_and_allport	71	37.0	0.427	to_hand	poldrack-single-stim	s555	False
441.15	0.1	0.391	441.541	0	PA_with_intermediate	test	ward_and_allport	82	37.0	0.391	to_board	poldrack-single-stim	s555	False
441.552	1.0	2.0	441.551	0	PA_with_intermediate	test	ward_and_allport	-1	37.0	n/a	feedback	poldrack-single-stim	s555	False
443.561	1.787	1.787	445.348	1	PA_without_intermediate	test	ward_and_allport	82	38.0	1.787	to_hand	poldrack-single-stim	s555	False
445.349	0.1	0.798	446.147	0	PA_without_intermediate	test	ward_and_allport	71	38.0	0.798	to_board	poldrack-single-stim	s555	False
446.154	0.1	1.299	447.453	0	PA_without_intermediate	test	ward_and_allport	82	38.0	1.299	to_hand	poldrack-single-stim	s555	False
447.453	0.1	0.46	447.913	0	PA_without_intermediate	test	ward_and_allport	71	38.0	0.46	to_board	poldrack-single-stim	s555	False
447.92	0.1	0.771	448.691	0	PA_without_intermediate	test	ward_and_allport	82	38.0	0.771	to_hand	poldrack-single-stim	s555	False
448.692	0.1	0.39	449.082	0	PA_without_intermediate	test	ward_and_allport	89	38.0	0.39	to_board	poldrack-single-stim	s555	False
449.093	1.0	2.0	449.092	0	PA_without_intermediate	test	ward_and_allport	-1	38.0	n/a	feedback	poldrack-single-stim	s555	False
451.102	1.287	1.287	452.389	1	PA_without_intermediate	test	ward_and_allport	82	39.0	1.287	to_hand	poldrack-single-stim	s555	False
452.39	0.1	0.606	452.996	0	PA_without_intermediate	test	ward_and_allport	89	39.0	0.606	to_board	poldrack-single-stim	s555	False
453.004	0.1	1.213	454.217	0	PA_without_intermediate	test	ward_and_allport	82	39.0	1.213	to_hand	poldrack-single-stim	s555	False
454.218	0.1	0.349	454.567	0	PA_without_intermediate	test	ward_and_allport	89	39.0	0.349	to_board	poldrack-single-stim	s555	False
454.577	0.1	0.471	455.048	0	PA_without_intermediate	test	ward_and_allport	82	39.0	0.471	to_hand	poldrack-single-stim	s555	False
455.049	0.1	0.424	455.473	0	PA_without_intermediate	test	ward_and_allport	71	39.0	0.424	to_board	poldrack-single-stim	s555	False
455.48	1.0	2.0	455.479	0	PA_without_intermediate	test	ward_and_allport	-1	39.0	n/a	feedback	poldrack-single-stim	s555	False
457.488	2.529	2.529	460.017	1	PA_with_intermediate	test	ward_and_allport	82	40.0	2.529	to_hand	poldrack-single-stim	s555	False
460.018	0.1	0.607	460.625	0	PA_with_intermediate	test	ward_and_allport	89	40.0	0.607	to_board	poldrack-single-stim	s555	False
460.632	0.1	0.651	461.283	0	PA_with_intermediate	test	ward_and_allport	82	40.0	0.651	to_hand	poldrack-single-stim	s555	False
461.284	0.1	0.407	461.691	0	PA_with_intermediate	test	ward_and_allport	71	40.0	0.407	to_board	poldrack-single-stim	s555	False
461.698	0.1	0.414	462.112	0	PA_with_intermediate	test	ward_and_allport	89	40.0	0.414	to_hand	poldrack-single-stim	s555	False
462.112	0.1	0.444	462.556	0	PA_with_intermediate	test	ward_and_allport	82	40.0	0.444	to_board	poldrack-single-stim	s555	False
462.566	1.0	2.544	462.565	0	PA_with_intermediate	test	ward_and_allport	-1	40.0	n/a	feedback	poldrack-single-stim	s555	False
465.119	1.934	1.934	467.053	1	PA_without_intermediate	test	ward_and_allport	71	41.0	1.934	to_hand	poldrack-single-stim	s555	False
467.053	0.1	0.868	467.921	0	PA_without_intermediate	test	ward_and_allport	89	41.0	0.868	to_board	poldrack-single-stim	s555	False
467.929	0.1	0.554	468.483	0	PA_without_intermediate	test	ward_and_allport	71	41.0	0.554	to_hand	poldrack-single-stim	s555	False
468.483	0.1	0.444	468.927	0	PA_without_intermediate	test	ward_and_allport	82	41.0	0.444	to_board	poldrack-single-stim	s555	False
468.936	0.1	0.476	469.412	0	PA_without_intermediate	test	ward_and_allport	71	41.0	0.476	to_hand	poldrack-single-stim	s555	False
469.413	0.1	0.349	469.762	0	PA_without_intermediate	test	ward_and_allport	89	41.0	0.349	to_board	poldrack-single-stim	s555	False
469.773	1.0	2.272	469.772	0	PA_without_intermediate	test	ward_and_allport	-1	41.0	n/a	feedback	poldrack-single-stim	s555	False
472.053	3.471	3.471	475.524	1	PA_with_intermediate	test	ward_and_allport	82	42.0	3.471	to_hand	poldrack-single-stim	s555	False
475.525	0.1	0.35	475.875	0	PA_with_intermediate	test	ward_and_allport	71	42.0	0.35	to_board	poldrack-single-stim	s555	False
475.881	0.1	1.706	477.587	0	PA_with_intermediate	test	ward_and_allport	82	42.0	1.706	to_hand	poldrack-single-stim	s555	False
477.589	0.1	0.61	478.199	0	PA_with_intermediate	test	ward_and_allport	89	42.0	0.61	to_board	poldrack-single-stim	s555	False
478.209	0.1	1.249	479.458	0	PA_with_intermediate	test	ward_and_allport	71	42.0	1.249	to_hand	poldrack-single-stim	s555	False
479.459	0.1	0.594	480.053	0	PA_with_intermediate	test	ward_and_allport	82	42.0	0.594	to_board	poldrack-single-stim	s555	False
480.064	0.1	3.782	483.846	0	PA_with_intermediate	test	ward_and_allport	82	42.0	3.782	to_hand	poldrack-single-stim	s555	False
483.847	0.1	1.258	485.105	0	PA_with_intermediate	test	ward_and_allport	89	42.0	1.258	to_board	poldrack-single-stim	s555	False
485.116	1.0	4.04	485.115	0	PA_with_intermediate	test	ward_and_allport	-1	42.0	n/a	feedback	poldrack-single-stim	s555	False
489.166	3.078	3.078	492.244	1	PA_with_intermediate	test	ward_and_allport	82	43.0	3.078	to_hand	poldrack-single-stim	s555	False
492.245	0.1	0.697	492.942	0	PA_with_intermediate	test	ward_and_allport	89	43.0	0.697	to_board	poldrack-single-stim	s555	False
492.953	0.1	0.949	493.902	0	PA_with_intermediate	test	ward_and_allport	82	43.0	0.949	to_hand	poldrack-single-stim	s555	False
493.902	0.1	0.711	494.613	0	PA_with_intermediate	test	ward_and_allport	71	43.0	0.711	to_board	poldrack-single-stim	s555	False
494.623	0.1	0.647	495.27	0	PA_with_intermediate	test	ward_and_allport	89	43.0	0.647	to_hand	poldrack-single-stim	s555	False
495.271	0.1	0.48	495.751	0	PA_with_intermediate	test	ward_and_allport	82	43.0	0.48	to_board	poldrack-single-stim	s555	False
495.763	1.0	2.272	495.762	0	PA_with_intermediate	test	ward_and_allport	-1	43.0	n/a	feedback	poldrack-single-stim	s555	False
498.043	2.36	2.36	500.403	1	PA_with_intermediate	test	ward_and_allport	82	44.0	2.36	to_hand	poldrack-single-stim	s555	False
500.405	0.1	0.827	501.232	0	PA_with_intermediate	test	ward_and_allport	89	44.0	0.827	to_board	poldrack-single-stim	s555	False
501.242	0.1	0.665	501.907	0	PA_with_intermediate	test	ward_and_allport	82	44.0	0.665	to_hand	poldrack-single-stim	s555	False
501.908	0.1	0.629	502.537	0	PA_with_intermediate	test	ward_and_allport	71	44.0	0.629	to_board	poldrack-single-stim	s555	False
502.548	0.1	0.67	503.218	0	PA_with_intermediate	test	ward_and_allport	89	44.0	0.67	to_hand	poldrack-single-stim	s555	False
503.219	0.1	0.497	503.716	0	PA_with_intermediate	test	ward_and_allport	71	44.0	0.497	to_board	poldrack-single-stim	s555	False
503.727	1.0	2.136	503.726	0	PA_with_intermediate	test	ward_and_allport	-1	44.0	n/a	feedback	poldrack-single-stim	s555	False
510.874	3.405	3.405	514.279	1	PA_with_intermediate	test	ward_and_allport	71	45.0	3.405	to_hand	poldrack-single-stim	s555	False
514.279	0.1	0.623	514.902	0	PA_with_intermediate	test	ward_and_allport	82	45.0	0.623	to_board	poldrack-single-stim	s555	False
514.913	0.1	0.842	515.755	0	PA_with_intermediate	test	ward_and_allport	71	45.0	0.842	to_hand	poldrack-single-stim	s555	False
515.755	0.1	0.489	516.244	0	PA_with_intermediate	test	ward_and_allport	89	45.0	0.489	to_board	poldrack-single-stim	s555	False
516.255	0.1	0.412	516.667	0	PA_with_intermediate	test	ward_and_allport	82	45.0	0.412	to_hand	poldrack-single-stim	s555	False
516.668	0.1	0.511	517.179	0	PA_with_intermediate	test	ward_and_allport	89	45.0	0.511	to_board	poldrack-single-stim	s555	False
517.192	1.0	2.0	517.191	0	PA_with_intermediate	test	ward_and_allport	-1	45.0	n/a	feedback	poldrack-single-stim	s555	False
519.2	3.39	3.39	522.59	1	PA_with_intermediate	test	ward_and_allport	71	46.0	3.39	to_hand	poldrack-single-stim	s555	False
522.591	0.1	0.484	523.075	0	PA_with_intermediate	test	ward_and_allport	82	46.0	0.484	to_board	poldrack-single-stim	s555	False
523.084	0.1	0.451	523.535	0	PA_with_intermediate	test	ward_and_allport	71	46.0	0.451	to_hand	poldrack-single-stim	s555	False
523.535	0.1	0.408	523.943	0	PA_with_intermediate	test	ward_and_allport	89	46.0	0.408	to_board	poldrack-single-stim	s555	False
523.953	0.1	0.501	524.454	0	PA_with_intermediate	test	ward_and_allport	82	46.0	0.501	to_hand	poldrack-single-stim	s555	False
524.455	0.1	0.379	524.834	0	PA_with_intermediate	test	ward_and_allport	89	46.0	0.379	to_board	poldrack-single-stim	s555	False
524.847	1.0	2.0	524.846	0	PA_with_intermediate	test	ward_and_allport	-1	46.0	n/a	feedback	poldrack-single-stim	s555	False
526.857	1.721	1.721	528.578	1	PA_without_intermediate	test	ward_and_allport	89	47.0	1.721	to_hand	poldrack-single-stim	s555	False
528.578	0.1	0.73	529.308	0	PA_without_intermediate	test	ward_and_allport	71	47.0	0.73	to_board	poldrack-single-stim	s555	False
529.317	0.1	1.16	530.477	0	PA_without_intermediate	test	ward_and_allport	89	47.0	1.16	to_hand	poldrack-single-stim	s555	False
530.477	0.1	0.33	530.807	0	PA_without_intermediate	test	ward_and_allport	82	47.0	0.33	to_board	poldrack-single-stim	s555	False
530.816	0.1	0.63	531.446	0	PA_without_intermediate	test	ward_and_allport	89	47.0	0.63	to_hand	poldrack-single-stim	s555	False
531.447	0.1	0.266	531.713	0	PA_without_intermediate	test	ward_and_allport	71	47.0	0.266	to_board	poldrack-single-stim	s555	False
531.722	1.0	2.408	531.721	0	PA_without_intermediate	test	ward_and_allport	-1	47.0	n/a	feedback	poldrack-single-stim	s555	False
