onset	duration	block_duration	movement_onset	planning	condition	exp_stage	experiment_exp_id	key_press	problem_id	response_time	trial_id	trial_type	worker_id	junk
3.018	4.678	4.678	7.696	1	UA_with_intermediate	practice	ward_and_allport	71	0.0	4.678	to_hand	poldrack-single-stim	s495	False
7.7	0.1	1.577	9.277	0	UA_with_intermediate	practice	ward_and_allport	82	0.0	1.577	to_board	poldrack-single-stim	s495	False
9.281	0.1	0.678	9.959	0	UA_with_intermediate	practice	ward_and_allport	71	0.0	0.678	to_hand	poldrack-single-stim	s495	False
9.963	0.1	0.454	10.417	0	UA_with_intermediate	practice	ward_and_allport	89	0.0	0.454	to_board	poldrack-single-stim	s495	False
10.42	0.1	1.345	11.765	0	UA_with_intermediate	practice	ward_and_allport	89	0.0	1.345	to_hand	poldrack-single-stim	s495	False
11.768	0.1	1.559	13.327	0	UA_with_intermediate	practice	ward_and_allport	89	0.0	1.559	to_board	poldrack-single-stim	s495	False
13.331	0.1	0.628	13.959	0	UA_with_intermediate	practice	ward_and_allport	82	0.0	0.628	to_hand	poldrack-single-stim	s495	False
13.962	0.1	0.426	14.388	0	UA_with_intermediate	practice	ward_and_allport	89	0.0	0.426	to_board	poldrack-single-stim	s495	False
14.394	1.0	2.5	14.393	0	UA_with_intermediate	practice	ward_and_allport	-1	0.0	n/a	feedback	poldrack-single-stim	s495	False
16.899	4.234	4.234	21.133	1	UA_with_intermediate	practice	ward_and_allport	89	1.0	4.234	to_hand	poldrack-single-stim	s495	False
21.137	0.1	0.614	21.751	0	UA_with_intermediate	practice	ward_and_allport	82	1.0	0.614	to_board	poldrack-single-stim	s495	False
21.754	0.1	0.781	22.535	0	UA_with_intermediate	practice	ward_and_allport	71	1.0	0.781	to_hand	poldrack-single-stim	s495	False
22.537	0.1	0.435	22.972	0	UA_with_intermediate	practice	ward_and_allport	89	1.0	0.435	to_board	poldrack-single-stim	s495	False
22.975	0.1	0.561	23.536	0	UA_with_intermediate	practice	ward_and_allport	82	1.0	0.561	to_hand	poldrack-single-stim	s495	False
23.539	0.1	0.615	24.154	0	UA_with_intermediate	practice	ward_and_allport	89	1.0	0.615	to_board	poldrack-single-stim	s495	False
24.16	1.0	2.1	24.159	0	UA_with_intermediate	practice	ward_and_allport	-1	1.0	n/a	feedback	poldrack-single-stim	s495	False
26.267	2.934	2.934	29.201	1	UA_without_intermediate	practice	ward_and_allport	82	2.0	2.934	to_hand	poldrack-single-stim	s495	False
29.204	0.1	0.687	29.891	0	UA_without_intermediate	practice	ward_and_allport	89	2.0	0.687	to_board	poldrack-single-stim	s495	False
29.895	0.1	0.933	30.828	0	UA_without_intermediate	practice	ward_and_allport	71	2.0	0.933	to_hand	poldrack-single-stim	s495	False
30.83	0.1	0.436	31.266	0	UA_without_intermediate	practice	ward_and_allport	89	2.0	0.436	to_board	poldrack-single-stim	s495	False
31.272	0.1	0.742	32.014	0	UA_without_intermediate	practice	ward_and_allport	71	2.0	0.742	to_hand	poldrack-single-stim	s495	False
32.017	0.1	0.422	32.439	0	UA_without_intermediate	practice	ward_and_allport	89	2.0	0.422	to_board	poldrack-single-stim	s495	False
32.444	1.0	2.2	32.443	0	UA_without_intermediate	practice	ward_and_allport	-1	2.0	n/a	feedback	poldrack-single-stim	s495	False
34.648	2.346	2.346	36.994	1	UA_without_intermediate	practice	ward_and_allport	71	3.0	2.346	to_hand	poldrack-single-stim	s495	False
36.997	0.1	0.631	37.628	0	UA_without_intermediate	practice	ward_and_allport	89	3.0	0.631	to_board	poldrack-single-stim	s495	False
37.632	0.1	0.648	38.28	0	UA_without_intermediate	practice	ward_and_allport	89	3.0	0.648	to_hand	poldrack-single-stim	s495	False
38.282	0.1	0.779	39.061	0	UA_without_intermediate	practice	ward_and_allport	89	3.0	0.779	to_board	poldrack-single-stim	s495	False
39.065	0.1	0.474	39.539	0	UA_without_intermediate	practice	ward_and_allport	89	3.0	0.474	to_hand	poldrack-single-stim	s495	False
39.541	0.1	0.554	40.095	0	UA_without_intermediate	practice	ward_and_allport	89	3.0	0.554	to_board	poldrack-single-stim	s495	False
40.099	0.1	0.892	40.991	0	UA_without_intermediate	practice	ward_and_allport	82	3.0	0.892	to_hand	poldrack-single-stim	s495	False
40.994	0.1	0.491	41.485	0	UA_without_intermediate	practice	ward_and_allport	89	3.0	0.491	to_board	poldrack-single-stim	s495	False
41.49	0.1	0.472	41.962	0	UA_without_intermediate	practice	ward_and_allport	71	3.0	0.472	to_hand	poldrack-single-stim	s495	False
41.964	0.1	0.438	42.402	0	UA_without_intermediate	practice	ward_and_allport	89	3.0	0.438	to_board	poldrack-single-stim	s495	False
42.409	1.0	2.0	42.408	0	UA_without_intermediate	practice	ward_and_allport	-1	3.0	n/a	feedback	poldrack-single-stim	s495	False
46.42	3.079	3.079	49.499	1	PA_without_intermediate	test	ward_and_allport	82	0.0	3.079	to_hand	poldrack-single-stim	s495	False
49.501	0.1	0.621	50.122	0	PA_without_intermediate	test	ward_and_allport	89	0.0	0.621	to_board	poldrack-single-stim	s495	False
50.128	0.1	0.926	51.054	0	PA_without_intermediate	test	ward_and_allport	82	0.0	0.926	to_hand	poldrack-single-stim	s495	False
51.056	0.1	0.581	51.637	0	PA_without_intermediate	test	ward_and_allport	89	0.0	0.581	to_board	poldrack-single-stim	s495	False
51.642	0.1	0.802	52.444	0	PA_without_intermediate	test	ward_and_allport	82	0.0	0.802	to_hand	poldrack-single-stim	s495	False
52.447	0.1	0.447	52.894	0	PA_without_intermediate	test	ward_and_allport	71	0.0	0.447	to_board	poldrack-single-stim	s495	False
52.899	1.0	3.088	52.898	0	PA_without_intermediate	test	ward_and_allport	-1	0.0	n/a	feedback	poldrack-single-stim	s495	False
55.993	4.803	4.803	60.796	1	PA_with_intermediate	test	ward_and_allport	82	1.0	4.803	to_hand	poldrack-single-stim	s495	False
60.799	0.1	0.926	61.725	0	PA_with_intermediate	test	ward_and_allport	89	1.0	0.926	to_board	poldrack-single-stim	s495	False
61.73	0.1	0.687	62.417	0	PA_with_intermediate	test	ward_and_allport	82	1.0	0.687	to_hand	poldrack-single-stim	s495	False
62.419	0.1	0.45	62.869	0	PA_with_intermediate	test	ward_and_allport	71	1.0	0.45	to_board	poldrack-single-stim	s495	False
62.876	0.1	0.423	63.299	0	PA_with_intermediate	test	ward_and_allport	89	1.0	0.423	to_hand	poldrack-single-stim	s495	False
63.302	0.1	0.394	63.696	0	PA_with_intermediate	test	ward_and_allport	82	1.0	0.394	to_board	poldrack-single-stim	s495	False
63.703	1.0	2.0	63.702	0	PA_with_intermediate	test	ward_and_allport	-1	1.0	n/a	feedback	poldrack-single-stim	s495	False
65.708	3.186	3.186	68.894	1	PA_without_intermediate	test	ward_and_allport	82	2.0	3.186	to_hand	poldrack-single-stim	s495	False
68.897	0.1	0.414	69.311	0	PA_without_intermediate	test	ward_and_allport	71	2.0	0.414	to_board	poldrack-single-stim	s495	False
69.319	0.1	0.659	69.978	0	PA_without_intermediate	test	ward_and_allport	82	2.0	0.659	to_hand	poldrack-single-stim	s495	False
69.979	0.1	0.495	70.474	0	PA_without_intermediate	test	ward_and_allport	89	2.0	0.495	to_board	poldrack-single-stim	s495	False
70.482	0.1	0.5	70.982	0	PA_without_intermediate	test	ward_and_allport	82	2.0	0.5	to_hand	poldrack-single-stim	s495	False
70.986	0.1	0.407	71.393	0	PA_without_intermediate	test	ward_and_allport	71	2.0	0.407	to_board	poldrack-single-stim	s495	False
71.4	1.0	2.0	71.399	0	PA_without_intermediate	test	ward_and_allport	-1	2.0	n/a	feedback	poldrack-single-stim	s495	False
73.406	2.557	2.557	75.963	1	PA_without_intermediate	test	ward_and_allport	82	3.0	2.557	to_hand	poldrack-single-stim	s495	False
75.965	0.1	0.358	76.323	0	PA_without_intermediate	test	ward_and_allport	89	3.0	0.358	to_board	poldrack-single-stim	s495	False
76.329	0.1	0.394	76.723	0	PA_without_intermediate	test	ward_and_allport	82	3.0	0.394	to_hand	poldrack-single-stim	s495	False
76.725	0.1	0.513	77.238	0	PA_without_intermediate	test	ward_and_allport	89	3.0	0.513	to_board	poldrack-single-stim	s495	False
77.245	0.1	0.481	77.726	0	PA_without_intermediate	test	ward_and_allport	82	3.0	0.481	to_hand	poldrack-single-stim	s495	False
77.727	0.1	0.355	78.082	0	PA_without_intermediate	test	ward_and_allport	71	3.0	0.355	to_board	poldrack-single-stim	s495	False
78.09	1.0	2.0	78.089	0	PA_without_intermediate	test	ward_and_allport	-1	3.0	n/a	feedback	poldrack-single-stim	s495	False
80.095	2.455	2.455	82.55	1	PA_with_intermediate	test	ward_and_allport	82	4.0	2.455	to_hand	poldrack-single-stim	s495	False
82.552	0.1	2.131	84.683	0	PA_with_intermediate	test	ward_and_allport	71	4.0	2.131	to_board	poldrack-single-stim	s495	False
84.692	0.1	1.668	86.36	0	PA_with_intermediate	test	ward_and_allport	82	4.0	1.668	to_hand	poldrack-single-stim	s495	False
86.363	0.1	0.461	86.824	0	PA_with_intermediate	test	ward_and_allport	89	4.0	0.461	to_board	poldrack-single-stim	s495	False
86.832	0.1	0.423	87.255	0	PA_with_intermediate	test	ward_and_allport	71	4.0	0.423	to_hand	poldrack-single-stim	s495	False
87.258	0.1	0.324	87.582	0	PA_with_intermediate	test	ward_and_allport	89	4.0	0.324	to_board	poldrack-single-stim	s495	False
87.591	1.0	2.544	87.59	0	PA_with_intermediate	test	ward_and_allport	-1	4.0	n/a	feedback	poldrack-single-stim	s495	False
90.142	3.021	3.021	93.163	1	PA_without_intermediate	test	ward_and_allport	89	5.0	3.021	to_hand	poldrack-single-stim	s495	False
93.165	0.1	0.61	93.775	0	PA_without_intermediate	test	ward_and_allport	89	5.0	0.61	to_board	poldrack-single-stim	s495	False
93.782	0.1	0.557	94.339	0	PA_without_intermediate	test	ward_and_allport	89	5.0	0.557	to_hand	poldrack-single-stim	s495	False
94.341	0.1	0.462	94.803	0	PA_without_intermediate	test	ward_and_allport	71	5.0	0.462	to_board	poldrack-single-stim	s495	False
94.81	0.1	0.544	95.354	0	PA_without_intermediate	test	ward_and_allport	89	5.0	0.544	to_hand	poldrack-single-stim	s495	False
95.357	0.1	0.49	95.847	0	PA_without_intermediate	test	ward_and_allport	82	5.0	0.49	to_board	poldrack-single-stim	s495	False
95.854	0.1	0.493	96.347	0	PA_without_intermediate	test	ward_and_allport	89	5.0	0.493	to_hand	poldrack-single-stim	s495	False
96.351	0.1	0.36	96.711	0	PA_without_intermediate	test	ward_and_allport	71	5.0	0.36	to_board	poldrack-single-stim	s495	False
96.721	1.0	2.272	96.72	0	PA_without_intermediate	test	ward_and_allport	-1	5.0	n/a	feedback	poldrack-single-stim	s495	False
99.002	4.716	4.716	103.718	1	PA_with_intermediate	test	ward_and_allport	71	6.0	4.716	to_hand	poldrack-single-stim	s495	False
103.72	0.1	0.42	104.14	0	PA_with_intermediate	test	ward_and_allport	82	6.0	0.42	to_board	poldrack-single-stim	s495	False
104.147	0.1	0.362	104.509	0	PA_with_intermediate	test	ward_and_allport	71	6.0	0.362	to_hand	poldrack-single-stim	s495	False
104.511	0.1	0.315	104.826	0	PA_with_intermediate	test	ward_and_allport	89	6.0	0.315	to_board	poldrack-single-stim	s495	False
104.834	0.1	0.354	105.188	0	PA_with_intermediate	test	ward_and_allport	82	6.0	0.354	to_hand	poldrack-single-stim	s495	False
105.19	0.1	0.25	105.44	0	PA_with_intermediate	test	ward_and_allport	89	6.0	0.25	to_board	poldrack-single-stim	s495	False
105.449	1.0	4.04	105.448	0	PA_with_intermediate	test	ward_and_allport	-1	6.0	n/a	feedback	poldrack-single-stim	s495	False
109.498	3.051	3.051	112.549	1	PA_with_intermediate	test	ward_and_allport	71	7.0	3.051	to_hand	poldrack-single-stim	s495	False
112.551	0.1	0.398	112.949	0	PA_with_intermediate	test	ward_and_allport	82	7.0	0.398	to_board	poldrack-single-stim	s495	False
112.96	0.1	0.351	113.311	0	PA_with_intermediate	test	ward_and_allport	71	7.0	0.351	to_hand	poldrack-single-stim	s495	False
113.314	0.1	0.309	113.623	0	PA_with_intermediate	test	ward_and_allport	89	7.0	0.309	to_board	poldrack-single-stim	s495	False
113.633	0.1	0.359	113.992	0	PA_with_intermediate	test	ward_and_allport	82	7.0	0.359	to_hand	poldrack-single-stim	s495	False
113.994	0.1	0.285	114.279	0	PA_with_intermediate	test	ward_and_allport	71	7.0	0.285	to_board	poldrack-single-stim	s495	False
114.291	1.0	2.272	114.29	0	PA_with_intermediate	test	ward_and_allport	-1	7.0	n/a	feedback	poldrack-single-stim	s495	False
116.572	3.465	3.465	120.037	1	PA_with_intermediate	test	ward_and_allport	71	8.0	3.465	to_hand	poldrack-single-stim	s495	False
120.038	0.1	0.259	120.297	0	PA_with_intermediate	test	ward_and_allport	89	8.0	0.259	to_board	poldrack-single-stim	s495	False
120.304	0.1	0.374	120.678	0	PA_with_intermediate	test	ward_and_allport	71	8.0	0.374	to_hand	poldrack-single-stim	s495	False
120.681	0.1	0.312	120.993	0	PA_with_intermediate	test	ward_and_allport	82	8.0	0.312	to_board	poldrack-single-stim	s495	False
121.001	0.1	0.288	121.289	0	PA_with_intermediate	test	ward_and_allport	89	8.0	0.288	to_hand	poldrack-single-stim	s495	False
121.292	0.1	0.24	121.532	0	PA_with_intermediate	test	ward_and_allport	82	8.0	0.24	to_board	poldrack-single-stim	s495	False
121.542	1.0	2.136	121.541	0	PA_with_intermediate	test	ward_and_allport	-1	8.0	n/a	feedback	poldrack-single-stim	s495	False
123.688	3.316	3.316	127.004	1	PA_with_intermediate	test	ward_and_allport	82	9.0	3.316	to_hand	poldrack-single-stim	s495	False
127.006	0.1	0.356	127.362	0	PA_with_intermediate	test	ward_and_allport	89	9.0	0.356	to_board	poldrack-single-stim	s495	False
127.369	0.1	0.766	128.135	0	PA_with_intermediate	test	ward_and_allport	82	9.0	0.766	to_hand	poldrack-single-stim	s495	False
128.138	0.1	0.302	128.44	0	PA_with_intermediate	test	ward_and_allport	71	9.0	0.302	to_board	poldrack-single-stim	s495	False
128.451	0.1	0.262	128.713	0	PA_with_intermediate	test	ward_and_allport	89	9.0	0.262	to_hand	poldrack-single-stim	s495	False
128.716	0.1	0.27	128.986	0	PA_with_intermediate	test	ward_and_allport	82	9.0	0.27	to_board	poldrack-single-stim	s495	False
128.996	1.0	2.0	128.995	0	PA_with_intermediate	test	ward_and_allport	-1	9.0	n/a	feedback	poldrack-single-stim	s495	False
131.007	4.05	4.05	135.057	1	PA_with_intermediate	test	ward_and_allport	82	10.0	4.05	to_hand	poldrack-single-stim	s495	False
135.059	0.1	0.339	135.398	0	PA_with_intermediate	test	ward_and_allport	89	10.0	0.339	to_board	poldrack-single-stim	s495	False
135.411	0.1	0.523	135.934	0	PA_with_intermediate	test	ward_and_allport	82	10.0	0.523	to_hand	poldrack-single-stim	s495	False
135.936	0.1	0.309	136.245	0	PA_with_intermediate	test	ward_and_allport	71	10.0	0.309	to_board	poldrack-single-stim	s495	False
136.254	0.1	0.257	136.511	0	PA_with_intermediate	test	ward_and_allport	89	10.0	0.257	to_hand	poldrack-single-stim	s495	False
136.514	0.1	0.278	136.792	0	PA_with_intermediate	test	ward_and_allport	71	10.0	0.278	to_board	poldrack-single-stim	s495	False
136.804	1.0	2.0	136.803	0	PA_with_intermediate	test	ward_and_allport	-1	10.0	n/a	feedback	poldrack-single-stim	s495	False
138.814	4.125	4.125	142.939	1	PA_without_intermediate	test	ward_and_allport	82	11.0	4.125	to_hand	poldrack-single-stim	s495	False
142.941	0.1	0.323	143.264	0	PA_without_intermediate	test	ward_and_allport	71	11.0	0.323	to_board	poldrack-single-stim	s495	False
143.275	0.1	0.401	143.676	0	PA_without_intermediate	test	ward_and_allport	82	11.0	0.401	to_hand	poldrack-single-stim	s495	False
143.678	0.1	0.35	144.028	0	PA_without_intermediate	test	ward_and_allport	71	11.0	0.35	to_board	poldrack-single-stim	s495	False
144.04	0.1	0.375	144.415	0	PA_without_intermediate	test	ward_and_allport	82	11.0	0.375	to_hand	poldrack-single-stim	s495	False
144.417	0.1	0.24	144.657	0	PA_without_intermediate	test	ward_and_allport	89	11.0	0.24	to_board	poldrack-single-stim	s495	False
144.67	1.0	2.408	144.669	0	PA_without_intermediate	test	ward_and_allport	-1	11.0	n/a	feedback	poldrack-single-stim	s495	False
147.089	3.059	3.059	150.148	1	PA_with_intermediate	test	ward_and_allport	71	12.0	3.059	to_hand	poldrack-single-stim	s495	False
150.15	0.1	0.272	150.422	0	PA_with_intermediate	test	ward_and_allport	89	12.0	0.272	to_board	poldrack-single-stim	s495	False
150.432	0.1	0.371	150.803	0	PA_with_intermediate	test	ward_and_allport	71	12.0	0.371	to_hand	poldrack-single-stim	s495	False
150.806	0.1	0.302	151.108	0	PA_with_intermediate	test	ward_and_allport	82	12.0	0.302	to_board	poldrack-single-stim	s495	False
151.118	0.1	0.294	151.412	0	PA_with_intermediate	test	ward_and_allport	89	12.0	0.294	to_hand	poldrack-single-stim	s495	False
151.414	0.1	0.23	151.644	0	PA_with_intermediate	test	ward_and_allport	71	12.0	0.23	to_board	poldrack-single-stim	s495	False
151.656	1.0	3.768	151.655	0	PA_with_intermediate	test	ward_and_allport	-1	12.0	n/a	feedback	poldrack-single-stim	s495	False
155.432	3.477	3.477	158.909	1	PA_with_intermediate	test	ward_and_allport	89	13.0	3.477	to_hand	poldrack-single-stim	s495	False
158.916	0.1	0.356	159.272	0	PA_with_intermediate	test	ward_and_allport	82	13.0	0.356	to_board	poldrack-single-stim	s495	False
159.283	0.1	0.948	160.231	0	PA_with_intermediate	test	ward_and_allport	89	13.0	0.948	to_hand	poldrack-single-stim	s495	False
160.233	0.1	0.404	160.637	0	PA_with_intermediate	test	ward_and_allport	71	13.0	0.404	to_board	poldrack-single-stim	s495	False
160.647	0.1	0.35	160.997	0	PA_with_intermediate	test	ward_and_allport	82	13.0	0.35	to_hand	poldrack-single-stim	s495	False
161.0	0.1	0.326	161.326	0	PA_with_intermediate	test	ward_and_allport	89	13.0	0.326	to_board	poldrack-single-stim	s495	False
161.342	1.0	2.68	161.341	0	PA_with_intermediate	test	ward_and_allport	-1	13.0	n/a	feedback	poldrack-single-stim	s495	False
164.032	3.214	3.214	167.246	1	PA_without_intermediate	test	ward_and_allport	71	14.0	3.214	to_hand	poldrack-single-stim	s495	False
167.248	0.1	0.453	167.701	0	PA_without_intermediate	test	ward_and_allport	89	14.0	0.453	to_board	poldrack-single-stim	s495	False
167.711	0.1	0.476	168.187	0	PA_without_intermediate	test	ward_and_allport	71	14.0	0.476	to_hand	poldrack-single-stim	s495	False
168.19	0.1	0.326	168.516	0	PA_without_intermediate	test	ward_and_allport	89	14.0	0.326	to_board	poldrack-single-stim	s495	False
168.528	0.1	0.29	168.818	0	PA_without_intermediate	test	ward_and_allport	71	14.0	0.29	to_hand	poldrack-single-stim	s495	False
168.82	0.1	0.382	169.202	0	PA_without_intermediate	test	ward_and_allport	82	14.0	0.382	to_board	poldrack-single-stim	s495	False
169.212	1.0	3.224	169.211	0	PA_without_intermediate	test	ward_and_allport	-1	14.0	n/a	feedback	poldrack-single-stim	s495	False
177.452	3.581	3.581	181.033	1	PA_without_intermediate	test	ward_and_allport	89	15.0	3.581	to_hand	poldrack-single-stim	s495	False
181.035	0.1	0.499	181.534	0	PA_without_intermediate	test	ward_and_allport	82	15.0	0.499	to_board	poldrack-single-stim	s495	False
181.546	0.1	0.627	182.173	0	PA_without_intermediate	test	ward_and_allport	89	15.0	0.627	to_hand	poldrack-single-stim	s495	False
182.175	0.1	0.349	182.524	0	PA_without_intermediate	test	ward_and_allport	71	15.0	0.349	to_board	poldrack-single-stim	s495	False
182.537	0.1	0.291	182.828	0	PA_without_intermediate	test	ward_and_allport	89	15.0	0.291	to_hand	poldrack-single-stim	s495	False
182.831	0.1	0.574	183.405	0	PA_without_intermediate	test	ward_and_allport	82	15.0	0.574	to_board	poldrack-single-stim	s495	False
183.419	1.0	3.36	183.418	0	PA_without_intermediate	test	ward_and_allport	-1	15.0	n/a	feedback	poldrack-single-stim	s495	False
186.792	3.951	3.951	190.743	1	PA_without_intermediate	test	ward_and_allport	82	16.0	3.951	to_hand	poldrack-single-stim	s495	False
190.744	0.1	0.38	191.124	0	PA_without_intermediate	test	ward_and_allport	89	16.0	0.38	to_board	poldrack-single-stim	s495	False
191.134	0.1	0.296	191.43	0	PA_without_intermediate	test	ward_and_allport	82	16.0	0.296	to_hand	poldrack-single-stim	s495	False
191.433	0.1	0.318	191.751	0	PA_without_intermediate	test	ward_and_allport	71	16.0	0.318	to_board	poldrack-single-stim	s495	False
191.766	0.1	0.285	192.051	0	PA_without_intermediate	test	ward_and_allport	82	16.0	0.285	to_hand	poldrack-single-stim	s495	False
192.054	0.1	0.211	192.265	0	PA_without_intermediate	test	ward_and_allport	89	16.0	0.211	to_board	poldrack-single-stim	s495	False
192.281	1.0	2.0	192.28	0	PA_without_intermediate	test	ward_and_allport	-1	16.0	n/a	feedback	poldrack-single-stim	s495	False
194.293	4.735	4.735	199.028	1	PA_without_intermediate	test	ward_and_allport	71	17.0	4.735	to_hand	poldrack-single-stim	s495	False
199.03	0.1	0.255	199.285	0	PA_without_intermediate	test	ward_and_allport	89	17.0	0.255	to_board	poldrack-single-stim	s495	False
199.298	0.1	0.275	199.573	0	PA_without_intermediate	test	ward_and_allport	71	17.0	0.275	to_hand	poldrack-single-stim	s495	False
199.575	0.1	0.291	199.866	0	PA_without_intermediate	test	ward_and_allport	82	17.0	0.291	to_board	poldrack-single-stim	s495	False
199.88	0.1	0.274	200.154	0	PA_without_intermediate	test	ward_and_allport	71	17.0	0.274	to_hand	poldrack-single-stim	s495	False
200.156	0.1	0.24	200.396	0	PA_without_intermediate	test	ward_and_allport	89	17.0	0.24	to_board	poldrack-single-stim	s495	False
200.409	1.0	2.408	200.408	0	PA_without_intermediate	test	ward_and_allport	-1	17.0	n/a	feedback	poldrack-single-stim	s495	False
202.831	3.362	3.362	206.193	1	PA_with_intermediate	test	ward_and_allport	89	18.0	3.362	to_hand	poldrack-single-stim	s495	False
206.196	0.1	0.245	206.441	0	PA_with_intermediate	test	ward_and_allport	71	18.0	0.245	to_board	poldrack-single-stim	s495	False
206.452	0.1	0.221	206.673	0	PA_with_intermediate	test	ward_and_allport	89	18.0	0.221	to_hand	poldrack-single-stim	s495	False
206.676	0.1	0.279	206.955	0	PA_with_intermediate	test	ward_and_allport	82	18.0	0.279	to_board	poldrack-single-stim	s495	False
206.968	0.1	0.316	207.284	0	PA_with_intermediate	test	ward_and_allport	71	18.0	0.316	to_hand	poldrack-single-stim	s495	False
207.286	0.1	0.241	207.527	0	PA_with_intermediate	test	ward_and_allport	82	18.0	0.241	to_board	poldrack-single-stim	s495	False
207.542	1.0	2.136	207.541	0	PA_with_intermediate	test	ward_and_allport	-1	18.0	n/a	feedback	poldrack-single-stim	s495	False
209.692	5.153	5.153	214.845	1	PA_without_intermediate	test	ward_and_allport	82	19.0	5.153	to_hand	poldrack-single-stim	s495	False
214.847	0.1	0.234	215.081	0	PA_without_intermediate	test	ward_and_allport	89	19.0	0.234	to_board	poldrack-single-stim	s495	False
215.092	0.1	0.498	215.59	0	PA_without_intermediate	test	ward_and_allport	82	19.0	0.498	to_hand	poldrack-single-stim	s495	False
215.593	0.1	0.237	215.83	0	PA_without_intermediate	test	ward_and_allport	71	19.0	0.237	to_board	poldrack-single-stim	s495	False
215.842	0.1	0.44	216.282	0	PA_without_intermediate	test	ward_and_allport	82	19.0	0.44	to_hand	poldrack-single-stim	s495	False
216.284	0.1	0.194	216.478	0	PA_without_intermediate	test	ward_and_allport	89	19.0	0.194	to_board	poldrack-single-stim	s495	False
216.495	1.0	5.128	216.494	0	PA_without_intermediate	test	ward_and_allport	-1	19.0	n/a	feedback	poldrack-single-stim	s495	False
221.636	2.956	2.956	224.592	1	PA_without_intermediate	test	ward_and_allport	71	20.0	2.956	to_hand	poldrack-single-stim	s495	False
224.595	0.1	0.276	224.871	0	PA_without_intermediate	test	ward_and_allport	82	20.0	0.276	to_board	poldrack-single-stim	s495	False
224.884	0.1	0.212	225.096	0	PA_without_intermediate	test	ward_and_allport	71	20.0	0.212	to_hand	poldrack-single-stim	s495	False
225.098	0.1	0.249	225.347	0	PA_without_intermediate	test	ward_and_allport	82	20.0	0.249	to_board	poldrack-single-stim	s495	False
225.36	0.1	0.5	225.86	0	PA_without_intermediate	test	ward_and_allport	71	20.0	0.5	to_hand	poldrack-single-stim	s495	False
225.862	0.1	0.194	226.056	0	PA_without_intermediate	test	ward_and_allport	89	20.0	0.194	to_board	poldrack-single-stim	s495	False
226.092	1.0	2.136	226.091	0	PA_without_intermediate	test	ward_and_allport	-1	20.0	n/a	feedback	poldrack-single-stim	s495	False
228.242	4.384	4.384	232.626	1	PA_without_intermediate	test	ward_and_allport	82	21.0	4.384	to_hand	poldrack-single-stim	s495	False
232.628	0.1	0.256	232.884	0	PA_without_intermediate	test	ward_and_allport	71	21.0	0.256	to_board	poldrack-single-stim	s495	False
232.899	0.1	0.218	233.117	0	PA_without_intermediate	test	ward_and_allport	82	21.0	0.218	to_hand	poldrack-single-stim	s495	False
233.118	0.1	0.283	233.401	0	PA_without_intermediate	test	ward_and_allport	71	21.0	0.283	to_board	poldrack-single-stim	s495	False
233.418	0.1	0.24	233.658	0	PA_without_intermediate	test	ward_and_allport	82	21.0	0.24	to_hand	poldrack-single-stim	s495	False
233.661	0.1	0.195	233.856	0	PA_without_intermediate	test	ward_and_allport	89	21.0	0.195	to_board	poldrack-single-stim	s495	False
233.874	1.0	5.264	233.873	0	PA_without_intermediate	test	ward_and_allport	-1	21.0	n/a	feedback	poldrack-single-stim	s495	False
239.153	2.885	2.885	242.038	1	PA_with_intermediate	test	ward_and_allport	89	22.0	2.885	to_hand	poldrack-single-stim	s495	False
242.04	0.1	0.216	242.256	0	PA_with_intermediate	test	ward_and_allport	71	22.0	0.216	to_board	poldrack-single-stim	s495	False
242.272	0.1	0.179	242.451	0	PA_with_intermediate	test	ward_and_allport	89	22.0	0.179	to_hand	poldrack-single-stim	s495	False
242.453	0.1	0.248	242.701	0	PA_with_intermediate	test	ward_and_allport	82	22.0	0.248	to_board	poldrack-single-stim	s495	False
242.724	0.1	0.449	243.173	0	PA_with_intermediate	test	ward_and_allport	71	22.0	0.449	to_hand	poldrack-single-stim	s495	False
243.176	0.1	0.145	243.321	0	PA_with_intermediate	test	ward_and_allport	89	22.0	0.145	to_board	poldrack-single-stim	s495	False
243.339	1.0	4.04	243.338	0	PA_with_intermediate	test	ward_and_allport	-1	22.0	n/a	feedback	poldrack-single-stim	s495	False
247.396	5.444	5.444	252.84	1	PA_with_intermediate	test	ward_and_allport	89	23.0	5.444	to_hand	poldrack-single-stim	s495	False
252.842	0.1	0.21	253.052	0	PA_with_intermediate	test	ward_and_allport	71	23.0	0.21	to_board	poldrack-single-stim	s495	False
253.072	0.1	0.207	253.279	0	PA_with_intermediate	test	ward_and_allport	89	23.0	0.207	to_hand	poldrack-single-stim	s495	False
253.282	0.1	0.339	253.621	0	PA_with_intermediate	test	ward_and_allport	82	23.0	0.339	to_board	poldrack-single-stim	s495	False
253.636	0.1	0.281	253.917	0	PA_with_intermediate	test	ward_and_allport	71	23.0	0.281	to_hand	poldrack-single-stim	s495	False
253.92	0.1	0.197	254.117	0	PA_with_intermediate	test	ward_and_allport	82	23.0	0.197	to_board	poldrack-single-stim	s495	False
254.133	1.0	2.136	254.132	0	PA_with_intermediate	test	ward_and_allport	-1	23.0	n/a	feedback	poldrack-single-stim	s495	False
256.287	4.452	4.452	260.739	1	PA_with_intermediate	test	ward_and_allport	82	24.0	4.452	to_hand	poldrack-single-stim	s495	False
260.741	0.1	0.235	260.976	0	PA_with_intermediate	test	ward_and_allport	89	24.0	0.235	to_board	poldrack-single-stim	s495	False
260.994	0.1	0.298	261.292	0	PA_with_intermediate	test	ward_and_allport	82	24.0	0.298	to_hand	poldrack-single-stim	s495	False
261.294	0.1	0.235	261.529	0	PA_with_intermediate	test	ward_and_allport	71	24.0	0.235	to_board	poldrack-single-stim	s495	False
261.545	0.1	0.252	261.797	0	PA_with_intermediate	test	ward_and_allport	89	24.0	0.252	to_hand	poldrack-single-stim	s495	False
261.799	0.1	0.255	262.054	0	PA_with_intermediate	test	ward_and_allport	71	24.0	0.255	to_board	poldrack-single-stim	s495	False
262.073	1.0	2.408	262.072	0	PA_with_intermediate	test	ward_and_allport	-1	24.0	n/a	feedback	poldrack-single-stim	s495	False
264.495	4.034	4.034	268.529	1	PA_without_intermediate	test	ward_and_allport	71	25.0	4.034	to_hand	poldrack-single-stim	s495	False
268.531	0.1	0.259	268.79	0	PA_without_intermediate	test	ward_and_allport	82	25.0	0.259	to_board	poldrack-single-stim	s495	False
268.81	0.1	0.204	269.014	0	PA_without_intermediate	test	ward_and_allport	71	25.0	0.204	to_hand	poldrack-single-stim	s495	False
269.017	0.1	0.205	269.222	0	PA_without_intermediate	test	ward_and_allport	89	25.0	0.205	to_board	poldrack-single-stim	s495	False
269.238	0.1	0.213	269.451	0	PA_without_intermediate	test	ward_and_allport	71	25.0	0.213	to_hand	poldrack-single-stim	s495	False
269.453	0.1	0.212	269.665	0	PA_without_intermediate	test	ward_and_allport	82	25.0	0.212	to_board	poldrack-single-stim	s495	False
269.685	1.0	2.68	269.684	0	PA_without_intermediate	test	ward_and_allport	-1	25.0	n/a	feedback	poldrack-single-stim	s495	False
272.383	2.86	2.86	275.243	1	PA_with_intermediate	test	ward_and_allport	71	26.0	2.86	to_hand	poldrack-single-stim	s495	False
275.246	0.1	0.215	275.461	0	PA_with_intermediate	test	ward_and_allport	89	26.0	0.215	to_board	poldrack-single-stim	s495	False
275.479	0.1	0.204	275.683	0	PA_with_intermediate	test	ward_and_allport	71	26.0	0.204	to_hand	poldrack-single-stim	s495	False
275.686	0.1	0.314	276.0	0	PA_with_intermediate	test	ward_and_allport	82	26.0	0.314	to_board	poldrack-single-stim	s495	False
276.018	0.1	0.387	276.405	0	PA_with_intermediate	test	ward_and_allport	89	26.0	0.387	to_hand	poldrack-single-stim	s495	False
276.408	0.1	0.187	276.595	0	PA_with_intermediate	test	ward_and_allport	71	26.0	0.187	to_board	poldrack-single-stim	s495	False
276.614	1.0	4.72	276.613	0	PA_with_intermediate	test	ward_and_allport	-1	26.0	n/a	feedback	poldrack-single-stim	s495	False
281.354	3.569	3.569	284.923	1	PA_without_intermediate	test	ward_and_allport	89	27.0	3.569	to_hand	poldrack-single-stim	s495	False
284.925	0.1	0.271	285.196	0	PA_without_intermediate	test	ward_and_allport	82	27.0	0.271	to_board	poldrack-single-stim	s495	False
285.215	0.1	0.259	285.474	0	PA_without_intermediate	test	ward_and_allport	89	27.0	0.259	to_hand	poldrack-single-stim	s495	False
285.476	0.1	0.304	285.78	0	PA_without_intermediate	test	ward_and_allport	82	27.0	0.304	to_board	poldrack-single-stim	s495	False
285.8	0.1	0.594	286.394	0	PA_without_intermediate	test	ward_and_allport	89	27.0	0.594	to_hand	poldrack-single-stim	s495	False
286.397	0.1	0.174	286.571	0	PA_without_intermediate	test	ward_and_allport	71	27.0	0.174	to_board	poldrack-single-stim	s495	False
286.592	1.0	3.224	286.591	0	PA_without_intermediate	test	ward_and_allport	-1	27.0	n/a	feedback	poldrack-single-stim	s495	False
289.836	2.937	2.937	292.773	1	PA_without_intermediate	test	ward_and_allport	71	28.0	2.937	to_hand	poldrack-single-stim	s495	False
292.775	0.1	0.264	293.039	0	PA_without_intermediate	test	ward_and_allport	89	28.0	0.264	to_board	poldrack-single-stim	s495	False
293.058	0.1	0.232	293.29	0	PA_without_intermediate	test	ward_and_allport	71	28.0	0.232	to_hand	poldrack-single-stim	s495	False
293.292	0.1	0.34	293.632	0	PA_without_intermediate	test	ward_and_allport	89	28.0	0.34	to_board	poldrack-single-stim	s495	False
293.649	0.1	0.225	293.874	0	PA_without_intermediate	test	ward_and_allport	71	28.0	0.225	to_hand	poldrack-single-stim	s495	False
293.876	0.1	0.239	294.115	0	PA_without_intermediate	test	ward_and_allport	82	28.0	0.239	to_board	poldrack-single-stim	s495	False
294.134	1.0	2.272	294.133	0	PA_without_intermediate	test	ward_and_allport	-1	28.0	n/a	feedback	poldrack-single-stim	s495	False
296.423	2.531	2.531	298.954	1	PA_with_intermediate	test	ward_and_allport	71	29.0	2.531	to_hand	poldrack-single-stim	s495	False
298.957	0.1	0.215	299.172	0	PA_with_intermediate	test	ward_and_allport	82	29.0	0.215	to_board	poldrack-single-stim	s495	False
299.191	0.1	0.215	299.406	0	PA_with_intermediate	test	ward_and_allport	71	29.0	0.215	to_hand	poldrack-single-stim	s495	False
299.408	0.1	0.205	299.613	0	PA_with_intermediate	test	ward_and_allport	89	29.0	0.205	to_board	poldrack-single-stim	s495	False
299.629	0.1	0.285	299.914	0	PA_with_intermediate	test	ward_and_allport	82	29.0	0.285	to_hand	poldrack-single-stim	s495	False
299.916	0.1	0.262	300.178	0	PA_with_intermediate	test	ward_and_allport	71	29.0	0.262	to_board	poldrack-single-stim	s495	False
300.196	1.0	3.632	300.195	0	PA_with_intermediate	test	ward_and_allport	-1	29.0	n/a	feedback	poldrack-single-stim	s495	False
308.852	4.476	4.476	313.328	1	PA_without_intermediate	test	ward_and_allport	71	30.0	4.476	to_hand	poldrack-single-stim	s495	False
313.33	0.1	0.252	313.582	0	PA_without_intermediate	test	ward_and_allport	82	30.0	0.252	to_board	poldrack-single-stim	s495	False
313.6	0.1	0.188	313.788	0	PA_without_intermediate	test	ward_and_allport	71	30.0	0.188	to_hand	poldrack-single-stim	s495	False
313.791	0.1	0.223	314.014	0	PA_without_intermediate	test	ward_and_allport	89	30.0	0.223	to_board	poldrack-single-stim	s495	False
314.032	0.1	0.207	314.239	0	PA_without_intermediate	test	ward_and_allport	71	30.0	0.207	to_hand	poldrack-single-stim	s495	False
314.241	0.1	0.191	314.432	0	PA_without_intermediate	test	ward_and_allport	82	30.0	0.191	to_board	poldrack-single-stim	s495	False
314.454	1.0	2.408	314.453	0	PA_without_intermediate	test	ward_and_allport	-1	30.0	n/a	feedback	poldrack-single-stim	s495	False
316.885	2.881	2.881	319.766	1	PA_without_intermediate	test	ward_and_allport	89	31.0	2.881	to_hand	poldrack-single-stim	s495	False
319.768	0.1	0.228	319.996	0	PA_without_intermediate	test	ward_and_allport	71	31.0	0.228	to_board	poldrack-single-stim	s495	False
320.016	0.1	0.188	320.204	0	PA_without_intermediate	test	ward_and_allport	89	31.0	0.188	to_hand	poldrack-single-stim	s495	False
320.206	0.1	0.216	320.422	0	PA_without_intermediate	test	ward_and_allport	71	31.0	0.216	to_board	poldrack-single-stim	s495	False
320.445	0.1	0.157	320.602	0	PA_without_intermediate	test	ward_and_allport	89	31.0	0.157	to_hand	poldrack-single-stim	s495	False
320.604	0.1	0.214	320.818	0	PA_without_intermediate	test	ward_and_allport	82	31.0	0.214	to_board	poldrack-single-stim	s495	False
320.835	1.0	2.0	320.834	0	PA_without_intermediate	test	ward_and_allport	-1	31.0	n/a	feedback	poldrack-single-stim	s495	False
322.849	3.24	3.24	326.089	1	PA_with_intermediate	test	ward_and_allport	71	32.0	3.24	to_hand	poldrack-single-stim	s495	False
326.091	0.1	0.252	326.343	0	PA_with_intermediate	test	ward_and_allport	82	32.0	0.252	to_board	poldrack-single-stim	s495	False
326.42	0.1	0.169	326.589	0	PA_with_intermediate	test	ward_and_allport	71	32.0	0.169	to_hand	poldrack-single-stim	s495	False
326.591	0.1	0.496	327.087	0	PA_with_intermediate	test	ward_and_allport	89	32.0	0.496	to_board	poldrack-single-stim	s495	False
327.107	0.1	0.221	327.328	0	PA_with_intermediate	test	ward_and_allport	82	32.0	0.221	to_hand	poldrack-single-stim	s495	False
327.329	0.1	0.214	327.543	0	PA_with_intermediate	test	ward_and_allport	89	32.0	0.214	to_board	poldrack-single-stim	s495	False
327.567	1.0	2.0	327.566	0	PA_with_intermediate	test	ward_and_allport	-1	32.0	n/a	feedback	poldrack-single-stim	s495	False
329.591	3.73	3.73	333.321	1	PA_with_intermediate	test	ward_and_allport	82	33.0	3.73	to_hand	poldrack-single-stim	s495	False
333.324	0.1	0.296	333.62	0	PA_with_intermediate	test	ward_and_allport	71	33.0	0.296	to_board	poldrack-single-stim	s495	False
333.642	0.1	0.204	333.846	0	PA_with_intermediate	test	ward_and_allport	82	33.0	0.204	to_hand	poldrack-single-stim	s495	False
333.848	0.1	0.193	334.041	0	PA_with_intermediate	test	ward_and_allport	89	33.0	0.193	to_board	poldrack-single-stim	s495	False
334.064	0.1	0.368	334.432	0	PA_with_intermediate	test	ward_and_allport	71	33.0	0.368	to_hand	poldrack-single-stim	s495	False
334.435	0.1	0.177	334.612	0	PA_with_intermediate	test	ward_and_allport	82	33.0	0.177	to_board	poldrack-single-stim	s495	False
334.633	1.0	2.0	334.632	0	PA_with_intermediate	test	ward_and_allport	-1	33.0	n/a	feedback	poldrack-single-stim	s495	False
336.651	3.761	3.761	340.412	1	PA_with_intermediate	test	ward_and_allport	82	34.0	3.761	to_hand	poldrack-single-stim	s495	False
340.415	0.1	0.281	340.696	0	PA_with_intermediate	test	ward_and_allport	71	34.0	0.281	to_board	poldrack-single-stim	s495	False
340.71	0.1	0.266	340.976	0	PA_with_intermediate	test	ward_and_allport	82	34.0	0.266	to_hand	poldrack-single-stim	s495	False
340.978	0.1	0.232	341.21	0	PA_with_intermediate	test	ward_and_allport	89	34.0	0.232	to_board	poldrack-single-stim	s495	False
341.228	0.1	0.295	341.523	0	PA_with_intermediate	test	ward_and_allport	71	34.0	0.295	to_hand	poldrack-single-stim	s495	False
341.526	0.1	0.213	341.739	0	PA_with_intermediate	test	ward_and_allport	82	34.0	0.213	to_board	poldrack-single-stim	s495	False
341.761	1.0	2.408	341.76	0	PA_with_intermediate	test	ward_and_allport	-1	34.0	n/a	feedback	poldrack-single-stim	s495	False
344.193	2.666	2.666	346.859	1	PA_without_intermediate	test	ward_and_allport	89	35.0	2.666	to_hand	poldrack-single-stim	s495	False
346.861	0.1	0.223	347.084	0	PA_without_intermediate	test	ward_and_allport	82	35.0	0.223	to_board	poldrack-single-stim	s495	False
347.108	0.1	0.233	347.341	0	PA_without_intermediate	test	ward_and_allport	89	35.0	0.233	to_hand	poldrack-single-stim	s495	False
347.343	0.1	0.25	347.593	0	PA_without_intermediate	test	ward_and_allport	82	35.0	0.25	to_board	poldrack-single-stim	s495	False
347.614	0.1	0.254	347.868	0	PA_without_intermediate	test	ward_and_allport	89	35.0	0.254	to_hand	poldrack-single-stim	s495	False
347.87	0.1	0.212	348.082	0	PA_without_intermediate	test	ward_and_allport	71	35.0	0.212	to_board	poldrack-single-stim	s495	False
348.104	1.0	2.816	348.103	0	PA_without_intermediate	test	ward_and_allport	-1	35.0	n/a	feedback	poldrack-single-stim	s495	False
350.938	2.697	2.697	353.635	1	PA_with_intermediate	test	ward_and_allport	71	36.0	2.697	to_hand	poldrack-single-stim	s495	False
353.637	0.1	0.26	353.897	0	PA_with_intermediate	test	ward_and_allport	89	36.0	0.26	to_board	poldrack-single-stim	s495	False
353.911	0.1	0.238	354.149	0	PA_with_intermediate	test	ward_and_allport	71	36.0	0.238	to_hand	poldrack-single-stim	s495	False
354.152	0.1	0.234	354.386	0	PA_with_intermediate	test	ward_and_allport	82	36.0	0.234	to_board	poldrack-single-stim	s495	False
354.407	0.1	0.198	354.605	0	PA_with_intermediate	test	ward_and_allport	89	36.0	0.198	to_hand	poldrack-single-stim	s495	False
354.607	0.1	0.187	354.794	0	PA_with_intermediate	test	ward_and_allport	82	36.0	0.187	to_board	poldrack-single-stim	s495	False
354.821	1.0	4.176	354.82	0	PA_with_intermediate	test	ward_and_allport	-1	36.0	n/a	feedback	poldrack-single-stim	s495	False
359.017	1.686	1.686	360.703	1	PA_with_intermediate	test	ward_and_allport	89	37.0	1.686	to_hand	poldrack-single-stim	s495	False
360.705	0.1	0.229	360.934	0	PA_with_intermediate	test	ward_and_allport	82	37.0	0.229	to_board	poldrack-single-stim	s495	False
360.951	0.1	0.196	361.147	0	PA_with_intermediate	test	ward_and_allport	89	37.0	0.196	to_hand	poldrack-single-stim	s495	False
361.149	0.1	0.246	361.395	0	PA_with_intermediate	test	ward_and_allport	71	37.0	0.246	to_board	poldrack-single-stim	s495	False
361.418	0.1	0.255	361.673	0	PA_with_intermediate	test	ward_and_allport	82	37.0	0.255	to_hand	poldrack-single-stim	s495	False
361.675	0.1	0.21	361.885	0	PA_with_intermediate	test	ward_and_allport	71	37.0	0.21	to_board	poldrack-single-stim	s495	False
361.912	1.0	3.36	361.911	0	PA_with_intermediate	test	ward_and_allport	-1	37.0	n/a	feedback	poldrack-single-stim	s495	False
365.296	2.396	2.396	367.692	1	PA_with_intermediate	test	ward_and_allport	82	38.0	2.396	to_hand	poldrack-single-stim	s495	False
367.693	0.1	0.214	367.907	0	PA_with_intermediate	test	ward_and_allport	71	38.0	0.214	to_board	poldrack-single-stim	s495	False
367.929	0.1	0.227	368.156	0	PA_with_intermediate	test	ward_and_allport	82	38.0	0.227	to_hand	poldrack-single-stim	s495	False
368.158	0.1	0.195	368.353	0	PA_with_intermediate	test	ward_and_allport	89	38.0	0.195	to_board	poldrack-single-stim	s495	False
368.375	0.1	0.32	368.695	0	PA_with_intermediate	test	ward_and_allport	71	38.0	0.32	to_hand	poldrack-single-stim	s495	False
368.697	0.1	0.151	368.848	0	PA_with_intermediate	test	ward_and_allport	89	38.0	0.151	to_board	poldrack-single-stim	s495	False
368.872	1.0	2.0	368.871	0	PA_with_intermediate	test	ward_and_allport	-1	38.0	n/a	feedback	poldrack-single-stim	s495	False
370.891	1.895	1.895	372.786	1	PA_without_intermediate	test	ward_and_allport	71	39.0	1.895	to_hand	poldrack-single-stim	s495	False
372.788	0.1	0.22	373.008	0	PA_without_intermediate	test	ward_and_allport	82	39.0	0.22	to_board	poldrack-single-stim	s495	False
373.026	0.1	0.223	373.249	0	PA_without_intermediate	test	ward_and_allport	71	39.0	0.223	to_hand	poldrack-single-stim	s495	False
373.251	0.1	0.154	373.405	0	PA_without_intermediate	test	ward_and_allport	82	39.0	0.154	to_board	poldrack-single-stim	s495	False
373.424	0.1	1.184	374.608	0	PA_without_intermediate	test	ward_and_allport	71	39.0	1.184	to_hand	poldrack-single-stim	s495	False
374.611	0.1	0.151	374.762	0	PA_without_intermediate	test	ward_and_allport	89	39.0	0.151	to_board	poldrack-single-stim	s495	False
374.783	1.0	2.408	374.782	0	PA_without_intermediate	test	ward_and_allport	-1	39.0	n/a	feedback	poldrack-single-stim	s495	False
377.21	2.591	2.591	379.801	1	PA_with_intermediate	test	ward_and_allport	89	40.0	2.591	to_hand	poldrack-single-stim	s495	False
379.803	0.1	0.221	380.024	0	PA_with_intermediate	test	ward_and_allport	82	40.0	0.221	to_board	poldrack-single-stim	s495	False
380.039	0.1	0.229	380.268	0	PA_with_intermediate	test	ward_and_allport	89	40.0	0.229	to_hand	poldrack-single-stim	s495	False
380.271	0.1	0.233	380.504	0	PA_with_intermediate	test	ward_and_allport	71	40.0	0.233	to_board	poldrack-single-stim	s495	False
380.527	0.1	0.271	380.798	0	PA_with_intermediate	test	ward_and_allport	82	40.0	0.271	to_hand	poldrack-single-stim	s495	False
380.801	0.1	0.391	381.192	0	PA_with_intermediate	test	ward_and_allport	71	40.0	0.391	to_board	poldrack-single-stim	s495	False
381.213	1.0	2.816	381.212	0	PA_with_intermediate	test	ward_and_allport	-1	40.0	n/a	feedback	poldrack-single-stim	s495	False
384.047	5.086	5.086	389.133	1	PA_without_intermediate	test	ward_and_allport	82	41.0	5.086	to_hand	poldrack-single-stim	s495	False
389.136	0.1	0.236	389.372	0	PA_without_intermediate	test	ward_and_allport	71	41.0	0.236	to_board	poldrack-single-stim	s495	False
389.389	0.1	0.222	389.611	0	PA_without_intermediate	test	ward_and_allport	82	41.0	0.222	to_hand	poldrack-single-stim	s495	False
389.613	0.1	0.234	389.847	0	PA_without_intermediate	test	ward_and_allport	89	41.0	0.234	to_board	poldrack-single-stim	s495	False
389.869	0.1	0.279	390.148	0	PA_without_intermediate	test	ward_and_allport	82	41.0	0.279	to_hand	poldrack-single-stim	s495	False
390.15	0.1	0.194	390.344	0	PA_without_intermediate	test	ward_and_allport	71	41.0	0.194	to_board	poldrack-single-stim	s495	False
390.371	1.0	3.088	390.37	0	PA_without_intermediate	test	ward_and_allport	-1	41.0	n/a	feedback	poldrack-single-stim	s495	False
393.486	2.419	2.419	395.905	1	PA_without_intermediate	test	ward_and_allport	89	42.0	2.419	to_hand	poldrack-single-stim	s495	False
395.908	0.1	0.197	396.105	0	PA_without_intermediate	test	ward_and_allport	71	42.0	0.197	to_board	poldrack-single-stim	s495	False
396.123	0.1	0.21	396.333	0	PA_without_intermediate	test	ward_and_allport	89	42.0	0.21	to_hand	poldrack-single-stim	s495	False
396.335	0.1	0.239	396.574	0	PA_without_intermediate	test	ward_and_allport	82	42.0	0.239	to_board	poldrack-single-stim	s495	False
396.597	0.1	0.215	396.812	0	PA_without_intermediate	test	ward_and_allport	89	42.0	0.215	to_hand	poldrack-single-stim	s495	False
396.815	0.1	0.237	397.052	0	PA_without_intermediate	test	ward_and_allport	71	42.0	0.237	to_board	poldrack-single-stim	s495	False
397.074	1.0	2.136	397.073	0	PA_without_intermediate	test	ward_and_allport	-1	42.0	n/a	feedback	poldrack-single-stim	s495	False
399.234	1.721	1.721	400.955	1	PA_without_intermediate	test	ward_and_allport	89	43.0	1.721	to_hand	poldrack-single-stim	s495	False
400.957	0.1	0.242	401.199	0	PA_without_intermediate	test	ward_and_allport	82	43.0	0.242	to_board	poldrack-single-stim	s495	False
401.257	0.1	0.227	401.484	0	PA_without_intermediate	test	ward_and_allport	89	43.0	0.227	to_hand	poldrack-single-stim	s495	False
401.486	0.1	0.249	401.735	0	PA_without_intermediate	test	ward_and_allport	71	43.0	0.249	to_board	poldrack-single-stim	s495	False
401.758	0.1	0.206	401.964	0	PA_without_intermediate	test	ward_and_allport	89	43.0	0.206	to_hand	poldrack-single-stim	s495	False
401.966	0.1	0.26	402.226	0	PA_without_intermediate	test	ward_and_allport	82	43.0	0.26	to_board	poldrack-single-stim	s495	False
402.259	1.0	7.168	402.258	0	PA_without_intermediate	test	ward_and_allport	-1	43.0	n/a	feedback	poldrack-single-stim	s495	False
409.451	2.815	2.815	412.266	1	PA_without_intermediate	test	ward_and_allport	71	44.0	2.815	to_hand	poldrack-single-stim	s495	False
412.268	0.1	0.258	412.526	0	PA_without_intermediate	test	ward_and_allport	89	44.0	0.258	to_board	poldrack-single-stim	s495	False
412.551	0.1	0.306	412.857	0	PA_without_intermediate	test	ward_and_allport	71	44.0	0.306	to_hand	poldrack-single-stim	s495	False
412.859	0.1	0.257	413.116	0	PA_without_intermediate	test	ward_and_allport	82	44.0	0.257	to_board	poldrack-single-stim	s495	False
413.143	0.1	0.218	413.361	0	PA_without_intermediate	test	ward_and_allport	71	44.0	0.218	to_hand	poldrack-single-stim	s495	False
413.364	0.1	0.176	413.54	0	PA_without_intermediate	test	ward_and_allport	89	44.0	0.176	to_board	poldrack-single-stim	s495	False
413.569	1.0	2.816	413.568	0	PA_without_intermediate	test	ward_and_allport	-1	44.0	n/a	feedback	poldrack-single-stim	s495	False
421.417	5.136	5.136	426.553	1	PA_with_intermediate	test	ward_and_allport	89	45.0	5.136	to_hand	poldrack-single-stim	s495	False
426.555	0.1	0.269	426.824	0	PA_with_intermediate	test	ward_and_allport	82	45.0	0.269	to_board	poldrack-single-stim	s495	False
426.851	0.1	0.338	427.189	0	PA_with_intermediate	test	ward_and_allport	89	45.0	0.338	to_hand	poldrack-single-stim	s495	False
427.191	0.1	0.269	427.46	0	PA_with_intermediate	test	ward_and_allport	71	45.0	0.269	to_board	poldrack-single-stim	s495	False
427.491	0.1	0.35	427.841	0	PA_with_intermediate	test	ward_and_allport	82	45.0	0.35	to_hand	poldrack-single-stim	s495	False
427.843	0.1	0.21	428.053	0	PA_with_intermediate	test	ward_and_allport	89	45.0	0.21	to_board	poldrack-single-stim	s495	False
428.075	1.0	2.952	428.074	0	PA_with_intermediate	test	ward_and_allport	-1	45.0	n/a	feedback	poldrack-single-stim	s495	False
431.049	2.6	2.6	433.649	1	PA_with_intermediate	test	ward_and_allport	89	46.0	2.6	to_hand	poldrack-single-stim	s495	False
433.651	0.1	0.27	433.921	0	PA_with_intermediate	test	ward_and_allport	71	46.0	0.27	to_board	poldrack-single-stim	s495	False
433.947	0.1	0.218	434.165	0	PA_with_intermediate	test	ward_and_allport	89	46.0	0.218	to_hand	poldrack-single-stim	s495	False
434.167	0.1	0.222	434.389	0	PA_with_intermediate	test	ward_and_allport	82	46.0	0.222	to_board	poldrack-single-stim	s495	False
434.423	0.1	0.286	434.709	0	PA_with_intermediate	test	ward_and_allport	71	46.0	0.286	to_hand	poldrack-single-stim	s495	False
434.711	0.1	0.167	434.878	0	PA_with_intermediate	test	ward_and_allport	89	46.0	0.167	to_board	poldrack-single-stim	s495	False
434.899	1.0	2.136	434.898	0	PA_with_intermediate	test	ward_and_allport	-1	46.0	n/a	feedback	poldrack-single-stim	s495	False
437.064	2.628	2.628	439.692	1	PA_without_intermediate	test	ward_and_allport	89	47.0	2.628	to_hand	poldrack-single-stim	s495	False
439.695	0.1	0.254	439.949	0	PA_without_intermediate	test	ward_and_allport	71	47.0	0.254	to_board	poldrack-single-stim	s495	False
439.975	0.1	0.228	440.203	0	PA_without_intermediate	test	ward_and_allport	89	47.0	0.228	to_hand	poldrack-single-stim	s495	False
440.205	0.1	0.261	440.466	0	PA_without_intermediate	test	ward_and_allport	71	47.0	0.261	to_board	poldrack-single-stim	s495	False
440.491	0.1	0.2	440.691	0	PA_without_intermediate	test	ward_and_allport	89	47.0	0.2	to_hand	poldrack-single-stim	s495	False
440.694	0.1	0.281	440.975	0	PA_without_intermediate	test	ward_and_allport	82	47.0	0.281	to_board	poldrack-single-stim	s495	False
441.001	1.0	2.68	441.0	0	PA_without_intermediate	test	ward_and_allport	-1	47.0	n/a	feedback	poldrack-single-stim	s495	False
