onset	duration	block_duration	movement_onset	planning	condition	exp_stage	experiment_exp_id	key_press	problem_id	response_time	trial_id	trial_type	worker_id	junk
3.011	7.823	7.823	10.834	1	UA_with_intermediate	practice	ward_and_allport	71	0.0	7.823	to_hand	poldrack-single-stim	s606	False
10.836	0.1	1.52	12.356	0	UA_with_intermediate	practice	ward_and_allport	82	0.0	1.52	to_board	poldrack-single-stim	s606	False
12.359	0.1	2.082	14.441	0	UA_with_intermediate	practice	ward_and_allport	71	0.0	2.082	to_hand	poldrack-single-stim	s606	False
14.443	0.1	0.527	14.97	0	UA_with_intermediate	practice	ward_and_allport	89	0.0	0.527	to_board	poldrack-single-stim	s606	False
14.972	0.1	0.924	15.896	0	UA_with_intermediate	practice	ward_and_allport	82	0.0	0.924	to_hand	poldrack-single-stim	s606	False
15.898	0.1	0.473	16.371	0	UA_with_intermediate	practice	ward_and_allport	89	0.0	0.473	to_board	poldrack-single-stim	s606	False
16.376	1.0	2.5	16.375	0	UA_with_intermediate	practice	ward_and_allport	-1	0.0	n/a	feedback	poldrack-single-stim	s606	False
18.879	12.972	12.972	31.851	1	UA_with_intermediate	practice	ward_and_allport	89	1.0	12.972	to_hand	poldrack-single-stim	s606	False
31.852	0.1	3.848	35.7	0	UA_with_intermediate	practice	ward_and_allport	82	1.0	3.848	to_board	poldrack-single-stim	s606	False
35.702	0.1	1.046	36.748	0	UA_with_intermediate	practice	ward_and_allport	71	1.0	1.046	to_hand	poldrack-single-stim	s606	False
36.748	0.1	0.376	37.124	0	UA_with_intermediate	practice	ward_and_allport	89	1.0	0.376	to_board	poldrack-single-stim	s606	False
37.127	0.1	0.674	37.801	0	UA_with_intermediate	practice	ward_and_allport	82	1.0	0.674	to_hand	poldrack-single-stim	s606	False
37.802	0.1	0.346	38.148	0	UA_with_intermediate	practice	ward_and_allport	89	1.0	0.346	to_board	poldrack-single-stim	s606	False
38.154	1.0	2.1	38.153	0	UA_with_intermediate	practice	ward_and_allport	-1	1.0	n/a	feedback	poldrack-single-stim	s606	False
40.256	3.426	3.426	43.682	1	UA_without_intermediate	practice	ward_and_allport	82	2.0	3.426	to_hand	poldrack-single-stim	s606	False
43.684	0.1	0.434	44.118	0	UA_without_intermediate	practice	ward_and_allport	89	2.0	0.434	to_board	poldrack-single-stim	s606	False
44.121	0.1	1.537	45.658	0	UA_without_intermediate	practice	ward_and_allport	71	2.0	1.537	to_hand	poldrack-single-stim	s606	False
45.659	0.1	0.366	46.025	0	UA_without_intermediate	practice	ward_and_allport	89	2.0	0.366	to_board	poldrack-single-stim	s606	False
46.029	0.1	1.822	47.851	0	UA_without_intermediate	practice	ward_and_allport	71	2.0	1.822	to_hand	poldrack-single-stim	s606	False
47.852	0.1	0.317	48.169	0	UA_without_intermediate	practice	ward_and_allport	89	2.0	0.317	to_board	poldrack-single-stim	s606	False
48.176	1.0	2.2	48.175	0	UA_without_intermediate	practice	ward_and_allport	-1	2.0	n/a	feedback	poldrack-single-stim	s606	False
50.379	2.481	2.481	52.86	1	UA_without_intermediate	practice	ward_and_allport	71	3.0	2.481	to_hand	poldrack-single-stim	s606	False
52.862	0.1	0.315	53.177	0	UA_without_intermediate	practice	ward_and_allport	89	3.0	0.315	to_board	poldrack-single-stim	s606	False
53.179	0.1	1.731	54.91	0	UA_without_intermediate	practice	ward_and_allport	82	3.0	1.731	to_hand	poldrack-single-stim	s606	False
54.912	0.1	0.588	55.5	0	UA_without_intermediate	practice	ward_and_allport	89	3.0	0.588	to_board	poldrack-single-stim	s606	False
55.502	0.1	0.457	55.959	0	UA_without_intermediate	practice	ward_and_allport	71	3.0	0.457	to_hand	poldrack-single-stim	s606	False
55.961	0.1	0.313	56.274	0	UA_without_intermediate	practice	ward_and_allport	89	3.0	0.313	to_board	poldrack-single-stim	s606	False
56.28	1.0	2.0	56.279	0	UA_without_intermediate	practice	ward_and_allport	-1	3.0	n/a	feedback	poldrack-single-stim	s606	False
60.286	10.494	10.494	70.78	1	PA_with_intermediate	test	ward_and_allport	89	0.0	10.494	to_hand	poldrack-single-stim	s606	False
70.781	0.1	2.746	73.527	0	PA_with_intermediate	test	ward_and_allport	89	0.0	2.746	to_board	poldrack-single-stim	s606	False
73.529	0.1	0.685	74.214	0	PA_with_intermediate	test	ward_and_allport	89	0.0	0.685	to_hand	poldrack-single-stim	s606	False
74.215	0.1	2.807	77.022	0	PA_with_intermediate	test	ward_and_allport	71	0.0	2.807	to_board	poldrack-single-stim	s606	False
77.025	0.1	0.905	77.93	0	PA_with_intermediate	test	ward_and_allport	89	0.0	0.905	to_hand	poldrack-single-stim	s606	False
77.932	0.1	0.44	78.372	0	PA_with_intermediate	test	ward_and_allport	82	0.0	0.44	to_board	poldrack-single-stim	s606	False
78.374	0.1	8.874	87.248	0	PA_with_intermediate	test	ward_and_allport	71	0.0	8.874	to_hand	poldrack-single-stim	s606	False
87.25	0.1	0.321	87.571	0	PA_with_intermediate	test	ward_and_allport	89	0.0	0.321	to_board	poldrack-single-stim	s606	False
87.574	1.0	3.768	87.573	0	PA_with_intermediate	test	ward_and_allport	-1	0.0	n/a	feedback	poldrack-single-stim	s606	False
91.344	6.397	6.397	97.741	1	PA_with_intermediate	test	ward_and_allport	82	1.0	6.397	to_hand	poldrack-single-stim	s606	False
97.743	0.1	0.541	98.284	0	PA_with_intermediate	test	ward_and_allport	89	1.0	0.541	to_board	poldrack-single-stim	s606	False
98.287	0.1	3.167	101.454	0	PA_with_intermediate	test	ward_and_allport	82	1.0	3.167	to_hand	poldrack-single-stim	s606	False
101.455	0.1	0.594	102.049	0	PA_with_intermediate	test	ward_and_allport	71	1.0	0.594	to_board	poldrack-single-stim	s606	False
102.053	0.1	1.649	103.702	0	PA_with_intermediate	test	ward_and_allport	89	1.0	1.649	to_hand	poldrack-single-stim	s606	False
103.703	0.1	0.53	104.233	0	PA_with_intermediate	test	ward_and_allport	71	1.0	0.53	to_board	poldrack-single-stim	s606	False
104.236	1.0	2.68	104.235	0	PA_with_intermediate	test	ward_and_allport	-1	1.0	n/a	feedback	poldrack-single-stim	s606	False
106.92	3.178	3.178	110.098	1	PA_without_intermediate	test	ward_and_allport	82	2.0	3.178	to_hand	poldrack-single-stim	s606	False
110.099	0.1	0.847	110.946	0	PA_without_intermediate	test	ward_and_allport	89	2.0	0.847	to_board	poldrack-single-stim	s606	False
110.949	0.1	2.604	113.553	0	PA_without_intermediate	test	ward_and_allport	82	2.0	2.604	to_hand	poldrack-single-stim	s606	False
113.555	0.1	0.715	114.27	0	PA_without_intermediate	test	ward_and_allport	89	2.0	0.715	to_board	poldrack-single-stim	s606	False
114.273	0.1	1.549	115.822	0	PA_without_intermediate	test	ward_and_allport	82	2.0	1.549	to_hand	poldrack-single-stim	s606	False
115.824	0.1	0.385	116.209	0	PA_without_intermediate	test	ward_and_allport	71	2.0	0.385	to_board	poldrack-single-stim	s606	False
116.215	1.0	3.224	116.214	0	PA_without_intermediate	test	ward_and_allport	-1	2.0	n/a	feedback	poldrack-single-stim	s606	False
119.442	4.53	4.53	123.972	1	PA_without_intermediate	test	ward_and_allport	71	3.0	4.53	to_hand	poldrack-single-stim	s606	False
123.974	0.1	0.413	124.387	0	PA_without_intermediate	test	ward_and_allport	82	3.0	0.413	to_board	poldrack-single-stim	s606	False
124.388	0.1	1.226	125.614	0	PA_without_intermediate	test	ward_and_allport	71	3.0	1.226	to_hand	poldrack-single-stim	s606	False
125.616	0.1	0.333	125.949	0	PA_without_intermediate	test	ward_and_allport	89	3.0	0.333	to_board	poldrack-single-stim	s606	False
125.952	0.1	1.876	127.828	0	PA_without_intermediate	test	ward_and_allport	71	3.0	1.876	to_hand	poldrack-single-stim	s606	False
127.83	0.1	0.549	128.379	0	PA_without_intermediate	test	ward_and_allport	82	3.0	0.549	to_board	poldrack-single-stim	s606	False
128.384	1.0	3.36	128.383	0	PA_without_intermediate	test	ward_and_allport	-1	3.0	n/a	feedback	poldrack-single-stim	s606	False
131.747	6.029	6.029	137.776	1	PA_without_intermediate	test	ward_and_allport	71	4.0	6.029	to_hand	poldrack-single-stim	s606	False
137.777	0.1	0.359	138.136	0	PA_without_intermediate	test	ward_and_allport	82	4.0	0.359	to_board	poldrack-single-stim	s606	False
138.139	0.1	1.091	139.23	0	PA_without_intermediate	test	ward_and_allport	71	4.0	1.091	to_hand	poldrack-single-stim	s606	False
139.231	0.1	0.457	139.688	0	PA_without_intermediate	test	ward_and_allport	82	4.0	0.457	to_board	poldrack-single-stim	s606	False
139.691	0.1	0.969	140.66	0	PA_without_intermediate	test	ward_and_allport	71	4.0	0.969	to_hand	poldrack-single-stim	s606	False
140.661	0.1	0.316	140.977	0	PA_without_intermediate	test	ward_and_allport	89	4.0	0.316	to_board	poldrack-single-stim	s606	False
140.981	1.0	2.0	140.98	0	PA_without_intermediate	test	ward_and_allport	-1	4.0	n/a	feedback	poldrack-single-stim	s606	False
142.984	7.018	7.018	150.002	1	PA_without_intermediate	test	ward_and_allport	71	5.0	7.018	to_hand	poldrack-single-stim	s606	False
150.004	0.1	0.32	150.324	0	PA_without_intermediate	test	ward_and_allport	82	5.0	0.32	to_board	poldrack-single-stim	s606	False
150.328	0.1	1.352	151.68	0	PA_without_intermediate	test	ward_and_allport	71	5.0	1.352	to_hand	poldrack-single-stim	s606	False
151.682	0.1	0.56	152.242	0	PA_without_intermediate	test	ward_and_allport	89	5.0	0.56	to_board	poldrack-single-stim	s606	False
152.244	0.1	11.965	164.209	0	PA_without_intermediate	test	ward_and_allport	82	5.0	11.965	to_hand	poldrack-single-stim	s606	False
164.21	0.1	0.865	165.075	0	PA_without_intermediate	test	ward_and_allport	89	5.0	0.865	to_board	poldrack-single-stim	s606	False
165.08	0.1	0.956	166.036	0	PA_without_intermediate	test	ward_and_allport	71	5.0	0.956	to_hand	poldrack-single-stim	s606	False
166.037	0.1	0.502	166.539	0	PA_without_intermediate	test	ward_and_allport	82	5.0	0.502	to_board	poldrack-single-stim	s606	False
166.542	0.1	2.151	168.693	0	PA_without_intermediate	test	ward_and_allport	89	5.0	2.151	to_hand	poldrack-single-stim	s606	False
168.694	0.1	1.884	170.578	0	PA_without_intermediate	test	ward_and_allport	82	5.0	1.884	to_board	poldrack-single-stim	s606	False
170.582	0.1	0.869	171.451	0	PA_without_intermediate	test	ward_and_allport	89	5.0	0.869	to_hand	poldrack-single-stim	s606	False
171.452	0.1	3.773	175.225	0	PA_without_intermediate	test	ward_and_allport	71	5.0	3.773	to_board	poldrack-single-stim	s606	False
175.228	0.1	0.426	175.654	0	PA_without_intermediate	test	ward_and_allport	82	5.0	0.426	to_hand	poldrack-single-stim	s606	False
175.655	0.1	0.394	176.049	0	PA_without_intermediate	test	ward_and_allport	89	5.0	0.394	to_board	poldrack-single-stim	s606	False
176.053	0.1	0.435	176.488	0	PA_without_intermediate	test	ward_and_allport	71	5.0	0.435	to_hand	poldrack-single-stim	s606	False
176.489	0.1	0.356	176.845	0	PA_without_intermediate	test	ward_and_allport	89	5.0	0.356	to_board	poldrack-single-stim	s606	False
176.849	1.0	2.408	176.848	0	PA_without_intermediate	test	ward_and_allport	-1	5.0	n/a	feedback	poldrack-single-stim	s606	False
179.262	3.424	3.424	182.686	1	PA_with_intermediate	test	ward_and_allport	82	6.0	3.424	to_hand	poldrack-single-stim	s606	False
182.687	0.1	4.22	186.907	0	PA_with_intermediate	test	ward_and_allport	71	6.0	4.22	to_board	poldrack-single-stim	s606	False
186.911	0.1	1.568	188.479	0	PA_with_intermediate	test	ward_and_allport	82	6.0	1.568	to_hand	poldrack-single-stim	s606	False
188.48	0.1	0.358	188.838	0	PA_with_intermediate	test	ward_and_allport	89	6.0	0.358	to_board	poldrack-single-stim	s606	False
188.841	0.1	0.702	189.543	0	PA_with_intermediate	test	ward_and_allport	71	6.0	0.702	to_hand	poldrack-single-stim	s606	False
189.544	0.1	0.547	190.091	0	PA_with_intermediate	test	ward_and_allport	82	6.0	0.547	to_board	poldrack-single-stim	s606	False
190.1	1.0	2.136	190.099	0	PA_with_intermediate	test	ward_and_allport	-1	6.0	n/a	feedback	poldrack-single-stim	s606	False
192.239	1.547	1.547	193.786	1	PA_without_intermediate	test	ward_and_allport	71	7.0	1.547	to_hand	poldrack-single-stim	s606	False
193.787	0.1	0.348	194.135	0	PA_without_intermediate	test	ward_and_allport	89	7.0	0.348	to_board	poldrack-single-stim	s606	False
194.14	0.1	0.947	195.087	0	PA_without_intermediate	test	ward_and_allport	71	7.0	0.947	to_hand	poldrack-single-stim	s606	False
195.088	0.1	0.259	195.347	0	PA_without_intermediate	test	ward_and_allport	89	7.0	0.259	to_board	poldrack-single-stim	s606	False
195.35	0.1	1.12	196.47	0	PA_without_intermediate	test	ward_and_allport	71	7.0	1.12	to_hand	poldrack-single-stim	s606	False
196.472	0.1	0.283	196.755	0	PA_without_intermediate	test	ward_and_allport	82	7.0	0.283	to_board	poldrack-single-stim	s606	False
196.762	1.0	5.128	196.761	0	PA_without_intermediate	test	ward_and_allport	-1	7.0	n/a	feedback	poldrack-single-stim	s606	False
201.894	2.461	2.461	204.355	1	PA_without_intermediate	test	ward_and_allport	71	8.0	2.461	to_hand	poldrack-single-stim	s606	False
204.355	0.1	0.326	204.681	0	PA_without_intermediate	test	ward_and_allport	89	8.0	0.326	to_board	poldrack-single-stim	s606	False
204.686	0.1	1.318	206.004	0	PA_without_intermediate	test	ward_and_allport	71	8.0	1.318	to_hand	poldrack-single-stim	s606	False
206.005	0.1	0.344	206.349	0	PA_without_intermediate	test	ward_and_allport	82	8.0	0.344	to_board	poldrack-single-stim	s606	False
206.354	0.1	0.739	207.093	0	PA_without_intermediate	test	ward_and_allport	71	8.0	0.739	to_hand	poldrack-single-stim	s606	False
207.095	0.1	0.262	207.357	0	PA_without_intermediate	test	ward_and_allport	89	8.0	0.262	to_board	poldrack-single-stim	s606	False
207.365	1.0	2.136	207.364	0	PA_without_intermediate	test	ward_and_allport	-1	8.0	n/a	feedback	poldrack-single-stim	s606	False
209.505	4.99	4.99	214.495	1	PA_without_intermediate	test	ward_and_allport	82	9.0	4.99	to_hand	poldrack-single-stim	s606	False
214.498	0.1	0.414	214.912	0	PA_without_intermediate	test	ward_and_allport	71	9.0	0.414	to_board	poldrack-single-stim	s606	False
214.916	0.1	3.384	218.3	0	PA_without_intermediate	test	ward_and_allport	82	9.0	3.384	to_hand	poldrack-single-stim	s606	False
218.303	0.1	0.337	218.64	0	PA_without_intermediate	test	ward_and_allport	89	9.0	0.337	to_board	poldrack-single-stim	s606	False
218.646	0.1	1.079	219.725	0	PA_without_intermediate	test	ward_and_allport	82	9.0	1.079	to_hand	poldrack-single-stim	s606	False
219.726	0.1	0.293	220.019	0	PA_without_intermediate	test	ward_and_allport	71	9.0	0.293	to_board	poldrack-single-stim	s606	False
220.029	1.0	5.264	220.028	0	PA_without_intermediate	test	ward_and_allport	-1	9.0	n/a	feedback	poldrack-single-stim	s606	False
225.298	5.503	5.503	230.801	1	PA_with_intermediate	test	ward_and_allport	89	10.0	5.503	to_hand	poldrack-single-stim	s606	False
230.802	0.1	1.299	232.101	0	PA_with_intermediate	test	ward_and_allport	82	10.0	1.299	to_board	poldrack-single-stim	s606	False
232.107	0.1	1.172	233.279	0	PA_with_intermediate	test	ward_and_allport	89	10.0	1.172	to_hand	poldrack-single-stim	s606	False
233.28	0.1	0.491	233.771	0	PA_with_intermediate	test	ward_and_allport	71	10.0	0.491	to_board	poldrack-single-stim	s606	False
233.776	0.1	0.541	234.317	0	PA_with_intermediate	test	ward_and_allport	82	10.0	0.541	to_hand	poldrack-single-stim	s606	False
234.318	0.1	0.639	234.957	0	PA_with_intermediate	test	ward_and_allport	71	10.0	0.639	to_board	poldrack-single-stim	s606	False
234.966	1.0	4.04	234.965	0	PA_with_intermediate	test	ward_and_allport	-1	10.0	n/a	feedback	poldrack-single-stim	s606	False
239.011	9.486	9.486	248.497	1	PA_with_intermediate	test	ward_and_allport	71	11.0	9.486	to_hand	poldrack-single-stim	s606	False
248.499	0.1	3.928	252.427	0	PA_with_intermediate	test	ward_and_allport	89	11.0	3.928	to_board	poldrack-single-stim	s606	False
252.433	0.1	0.974	253.407	0	PA_with_intermediate	test	ward_and_allport	71	11.0	0.974	to_hand	poldrack-single-stim	s606	False
253.408	0.1	0.575	253.983	0	PA_with_intermediate	test	ward_and_allport	82	11.0	0.575	to_board	poldrack-single-stim	s606	False
253.987	0.1	0.788	254.775	0	PA_with_intermediate	test	ward_and_allport	89	11.0	0.788	to_hand	poldrack-single-stim	s606	False
254.776	0.1	0.35	255.126	0	PA_with_intermediate	test	ward_and_allport	71	11.0	0.35	to_board	poldrack-single-stim	s606	False
255.131	1.0	2.136	255.13	0	PA_with_intermediate	test	ward_and_allport	-1	11.0	n/a	feedback	poldrack-single-stim	s606	False
257.273	7.492	7.492	264.765	1	PA_with_intermediate	test	ward_and_allport	71	12.0	7.492	to_hand	poldrack-single-stim	s606	False
264.766	0.1	0.469	265.235	0	PA_with_intermediate	test	ward_and_allport	82	12.0	0.469	to_board	poldrack-single-stim	s606	False
265.24	0.1	0.911	266.151	0	PA_with_intermediate	test	ward_and_allport	71	12.0	0.911	to_hand	poldrack-single-stim	s606	False
266.152	0.1	0.337	266.489	0	PA_with_intermediate	test	ward_and_allport	89	12.0	0.337	to_board	poldrack-single-stim	s606	False
266.494	0.1	0.616	267.11	0	PA_with_intermediate	test	ward_and_allport	82	12.0	0.616	to_hand	poldrack-single-stim	s606	False
267.111	0.1	0.448	267.559	0	PA_with_intermediate	test	ward_and_allport	71	12.0	0.448	to_board	poldrack-single-stim	s606	False
267.564	1.0	2.408	267.563	0	PA_with_intermediate	test	ward_and_allport	-1	12.0	n/a	feedback	poldrack-single-stim	s606	False
269.978	3.152	3.152	273.13	1	PA_without_intermediate	test	ward_and_allport	89	13.0	3.152	to_hand	poldrack-single-stim	s606	False
273.131	0.1	0.608	273.739	0	PA_without_intermediate	test	ward_and_allport	82	13.0	0.608	to_board	poldrack-single-stim	s606	False
273.744	0.1	1.176	274.92	0	PA_without_intermediate	test	ward_and_allport	89	13.0	1.176	to_hand	poldrack-single-stim	s606	False
274.921	0.1	0.404	275.325	0	PA_without_intermediate	test	ward_and_allport	82	13.0	0.404	to_board	poldrack-single-stim	s606	False
275.33	0.1	1.481	276.811	0	PA_without_intermediate	test	ward_and_allport	89	13.0	1.481	to_hand	poldrack-single-stim	s606	False
276.813	0.1	0.363	277.176	0	PA_without_intermediate	test	ward_and_allport	71	13.0	0.363	to_board	poldrack-single-stim	s606	False
277.186	1.0	2.68	277.185	0	PA_without_intermediate	test	ward_and_allport	-1	13.0	n/a	feedback	poldrack-single-stim	s606	False
279.87	3.608	3.608	283.478	1	PA_with_intermediate	test	ward_and_allport	82	14.0	3.608	to_hand	poldrack-single-stim	s606	False
283.479	0.1	0.809	284.288	0	PA_with_intermediate	test	ward_and_allport	89	14.0	0.809	to_board	poldrack-single-stim	s606	False
284.294	0.1	1.708	286.002	0	PA_with_intermediate	test	ward_and_allport	82	14.0	1.708	to_hand	poldrack-single-stim	s606	False
286.003	0.1	0.466	286.469	0	PA_with_intermediate	test	ward_and_allport	89	14.0	0.466	to_board	poldrack-single-stim	s606	False
286.474	0.1	4.547	291.021	0	PA_with_intermediate	test	ward_and_allport	82	14.0	4.547	to_hand	poldrack-single-stim	s606	False
291.022	0.1	3.802	294.824	0	PA_with_intermediate	test	ward_and_allport	82	14.0	3.802	to_board	poldrack-single-stim	s606	False
294.829	0.1	0.915	295.744	0	PA_with_intermediate	test	ward_and_allport	89	14.0	0.915	to_hand	poldrack-single-stim	s606	False
295.746	0.1	3.5	299.246	0	PA_with_intermediate	test	ward_and_allport	71	14.0	3.5	to_board	poldrack-single-stim	s606	False
299.251	0.1	3.203	302.454	0	PA_with_intermediate	test	ward_and_allport	89	14.0	3.203	to_hand	poldrack-single-stim	s606	False
302.455	0.1	0.77	303.225	0	PA_with_intermediate	test	ward_and_allport	82	14.0	0.77	to_board	poldrack-single-stim	s606	False
303.231	0.1	1.065	304.296	0	PA_with_intermediate	test	ward_and_allport	71	14.0	1.065	to_hand	poldrack-single-stim	s606	False
304.298	0.1	0.381	304.679	0	PA_with_intermediate	test	ward_and_allport	89	14.0	0.381	to_board	poldrack-single-stim	s606	False
304.686	0.1	0.81	305.496	0	PA_with_intermediate	test	ward_and_allport	82	14.0	0.81	to_hand	poldrack-single-stim	s606	False
305.497	0.1	0.327	305.824	0	PA_with_intermediate	test	ward_and_allport	89	14.0	0.327	to_board	poldrack-single-stim	s606	False
305.834	1.0	4.72	305.833	0	PA_with_intermediate	test	ward_and_allport	-1	14.0	n/a	feedback	poldrack-single-stim	s606	False
315.561	6.102	6.102	321.663	1	PA_without_intermediate	test	ward_and_allport	89	15.0	6.102	to_hand	poldrack-single-stim	s606	False
321.664	0.1	1.429	323.093	0	PA_without_intermediate	test	ward_and_allport	71	15.0	1.429	to_board	poldrack-single-stim	s606	False
323.098	0.1	0.837	323.935	0	PA_without_intermediate	test	ward_and_allport	89	15.0	0.837	to_hand	poldrack-single-stim	s606	False
323.936	0.1	0.418	324.354	0	PA_without_intermediate	test	ward_and_allport	71	15.0	0.418	to_board	poldrack-single-stim	s606	False
324.36	0.1	0.555	324.915	0	PA_without_intermediate	test	ward_and_allport	89	15.0	0.555	to_hand	poldrack-single-stim	s606	False
324.916	0.1	0.333	325.249	0	PA_without_intermediate	test	ward_and_allport	82	15.0	0.333	to_board	poldrack-single-stim	s606	False
325.256	1.0	3.224	325.255	0	PA_without_intermediate	test	ward_and_allport	-1	15.0	n/a	feedback	poldrack-single-stim	s606	False
328.486	2.727	2.727	331.213	1	PA_without_intermediate	test	ward_and_allport	89	16.0	2.727	to_hand	poldrack-single-stim	s606	False
331.214	0.1	0.878	332.092	0	PA_without_intermediate	test	ward_and_allport	71	16.0	0.878	to_board	poldrack-single-stim	s606	False
332.098	0.1	0.795	332.893	0	PA_without_intermediate	test	ward_and_allport	89	16.0	0.795	to_hand	poldrack-single-stim	s606	False
332.894	0.1	0.413	333.307	0	PA_without_intermediate	test	ward_and_allport	71	16.0	0.413	to_board	poldrack-single-stim	s606	False
333.313	0.1	0.672	333.985	0	PA_without_intermediate	test	ward_and_allport	89	16.0	0.672	to_hand	poldrack-single-stim	s606	False
333.986	0.1	0.39	334.376	0	PA_without_intermediate	test	ward_and_allport	82	16.0	0.39	to_board	poldrack-single-stim	s606	False
334.383	1.0	2.272	334.382	0	PA_without_intermediate	test	ward_and_allport	-1	16.0	n/a	feedback	poldrack-single-stim	s606	False
336.661	2.403	2.403	339.064	1	PA_with_intermediate	test	ward_and_allport	71	17.0	2.403	to_hand	poldrack-single-stim	s606	False
339.066	0.1	0.581	339.647	0	PA_with_intermediate	test	ward_and_allport	82	17.0	0.581	to_board	poldrack-single-stim	s606	False
339.653	0.1	0.702	340.355	0	PA_with_intermediate	test	ward_and_allport	71	17.0	0.702	to_hand	poldrack-single-stim	s606	False
340.357	0.1	0.33	340.687	0	PA_with_intermediate	test	ward_and_allport	82	17.0	0.33	to_board	poldrack-single-stim	s606	False
340.693	0.1	5.04	345.733	0	PA_with_intermediate	test	ward_and_allport	71	17.0	5.04	to_hand	poldrack-single-stim	s606	False
345.734	0.1	2.145	347.879	0	PA_with_intermediate	test	ward_and_allport	71	17.0	2.145	to_board	poldrack-single-stim	s606	False
347.884	0.1	0.929	348.813	0	PA_with_intermediate	test	ward_and_allport	82	17.0	0.929	to_hand	poldrack-single-stim	s606	False
348.814	0.1	0.452	349.266	0	PA_with_intermediate	test	ward_and_allport	71	17.0	0.452	to_board	poldrack-single-stim	s606	False
349.272	0.1	2.89	352.162	0	PA_with_intermediate	test	ward_and_allport	82	17.0	2.89	to_hand	poldrack-single-stim	s606	False
352.163	0.1	0.416	352.579	0	PA_with_intermediate	test	ward_and_allport	89	17.0	0.416	to_board	poldrack-single-stim	s606	False
352.586	0.1	0.424	353.01	0	PA_with_intermediate	test	ward_and_allport	71	17.0	0.424	to_hand	poldrack-single-stim	s606	False
353.011	0.1	0.338	353.349	0	PA_with_intermediate	test	ward_and_allport	82	17.0	0.338	to_board	poldrack-single-stim	s606	False
353.355	0.1	0.449	353.804	0	PA_with_intermediate	test	ward_and_allport	89	17.0	0.449	to_hand	poldrack-single-stim	s606	False
353.806	0.1	0.301	354.107	0	PA_with_intermediate	test	ward_and_allport	82	17.0	0.301	to_board	poldrack-single-stim	s606	False
354.118	1.0	3.632	354.117	0	PA_with_intermediate	test	ward_and_allport	-1	17.0	n/a	feedback	poldrack-single-stim	s606	False
357.756	4.242	4.242	361.998	1	PA_without_intermediate	test	ward_and_allport	82	18.0	4.242	to_hand	poldrack-single-stim	s606	False
361.999	0.1	0.617	362.616	0	PA_without_intermediate	test	ward_and_allport	71	18.0	0.617	to_board	poldrack-single-stim	s606	False
362.623	0.1	1.627	364.25	0	PA_without_intermediate	test	ward_and_allport	82	18.0	1.627	to_hand	poldrack-single-stim	s606	False
364.251	0.1	0.389	364.64	0	PA_without_intermediate	test	ward_and_allport	71	18.0	0.389	to_board	poldrack-single-stim	s606	False
364.648	0.1	1.061	365.709	0	PA_without_intermediate	test	ward_and_allport	82	18.0	1.061	to_hand	poldrack-single-stim	s606	False
365.71	0.1	0.32	366.03	0	PA_without_intermediate	test	ward_and_allport	89	18.0	0.32	to_board	poldrack-single-stim	s606	False
366.042	1.0	2.408	366.041	0	PA_without_intermediate	test	ward_and_allport	-1	18.0	n/a	feedback	poldrack-single-stim	s606	False
368.457	2.305	2.305	370.762	1	PA_without_intermediate	test	ward_and_allport	89	19.0	2.305	to_hand	poldrack-single-stim	s606	False
370.763	0.1	0.371	371.134	0	PA_without_intermediate	test	ward_and_allport	82	19.0	0.371	to_board	poldrack-single-stim	s606	False
371.142	0.1	0.915	372.057	0	PA_without_intermediate	test	ward_and_allport	89	19.0	0.915	to_hand	poldrack-single-stim	s606	False
372.059	0.1	0.325	372.384	0	PA_without_intermediate	test	ward_and_allport	71	19.0	0.325	to_board	poldrack-single-stim	s606	False
372.392	0.1	0.669	373.061	0	PA_without_intermediate	test	ward_and_allport	89	19.0	0.669	to_hand	poldrack-single-stim	s606	False
373.062	0.1	0.516	373.578	0	PA_without_intermediate	test	ward_and_allport	82	19.0	0.516	to_board	poldrack-single-stim	s606	False
373.586	1.0	2.0	373.585	0	PA_without_intermediate	test	ward_and_allport	-1	19.0	n/a	feedback	poldrack-single-stim	s606	False
375.594	3.254	3.254	378.848	1	PA_with_intermediate	test	ward_and_allport	89	20.0	3.254	to_hand	poldrack-single-stim	s606	False
378.85	0.1	1.146	379.996	0	PA_with_intermediate	test	ward_and_allport	82	20.0	1.146	to_board	poldrack-single-stim	s606	False
380.004	0.1	0.96	380.964	0	PA_with_intermediate	test	ward_and_allport	89	20.0	0.96	to_hand	poldrack-single-stim	s606	False
380.966	0.1	0.328	381.294	0	PA_with_intermediate	test	ward_and_allport	71	20.0	0.328	to_board	poldrack-single-stim	s606	False
381.302	0.1	0.444	381.746	0	PA_with_intermediate	test	ward_and_allport	82	20.0	0.444	to_hand	poldrack-single-stim	s606	False
381.748	0.1	0.323	382.071	0	PA_with_intermediate	test	ward_and_allport	89	20.0	0.323	to_board	poldrack-single-stim	s606	False
382.082	1.0	2.0	382.081	0	PA_with_intermediate	test	ward_and_allport	-1	20.0	n/a	feedback	poldrack-single-stim	s606	False
384.089	3.792	3.792	387.881	1	PA_with_intermediate	test	ward_and_allport	82	21.0	3.792	to_hand	poldrack-single-stim	s606	False
387.883	0.1	0.407	388.29	0	PA_with_intermediate	test	ward_and_allport	89	21.0	0.407	to_board	poldrack-single-stim	s606	False
388.297	0.1	0.956	389.253	0	PA_with_intermediate	test	ward_and_allport	89	21.0	0.956	to_hand	poldrack-single-stim	s606	False
389.254	0.1	0.747	390.001	0	PA_with_intermediate	test	ward_and_allport	71	21.0	0.747	to_board	poldrack-single-stim	s606	False
390.01	0.1	0.414	390.424	0	PA_with_intermediate	test	ward_and_allport	82	21.0	0.414	to_hand	poldrack-single-stim	s606	False
390.425	0.1	0.917	391.342	0	PA_with_intermediate	test	ward_and_allport	89	21.0	0.917	to_board	poldrack-single-stim	s606	False
391.35	0.1	1.027	392.377	0	PA_with_intermediate	test	ward_and_allport	71	21.0	1.027	to_hand	poldrack-single-stim	s606	False
392.377	0.1	0.38	392.757	0	PA_with_intermediate	test	ward_and_allport	89	21.0	0.38	to_board	poldrack-single-stim	s606	False
392.77	1.0	2.0	392.769	0	PA_with_intermediate	test	ward_and_allport	-1	21.0	n/a	feedback	poldrack-single-stim	s606	False
394.779	2.035	2.035	396.814	1	PA_with_intermediate	test	ward_and_allport	71	22.0	2.035	to_hand	poldrack-single-stim	s606	False
396.815	0.1	0.381	397.196	0	PA_with_intermediate	test	ward_and_allport	82	22.0	0.381	to_board	poldrack-single-stim	s606	False
397.204	0.1	0.952	398.156	0	PA_with_intermediate	test	ward_and_allport	71	22.0	0.952	to_hand	poldrack-single-stim	s606	False
398.157	0.1	0.291	398.448	0	PA_with_intermediate	test	ward_and_allport	89	22.0	0.291	to_board	poldrack-single-stim	s606	False
398.457	0.1	1.291	399.748	0	PA_with_intermediate	test	ward_and_allport	82	22.0	1.291	to_hand	poldrack-single-stim	s606	False
399.749	0.1	0.399	400.148	0	PA_with_intermediate	test	ward_and_allport	89	22.0	0.399	to_board	poldrack-single-stim	s606	False
400.157	1.0	2.408	400.156	0	PA_with_intermediate	test	ward_and_allport	-1	22.0	n/a	feedback	poldrack-single-stim	s606	False
402.573	2.113	2.113	404.686	1	PA_without_intermediate	test	ward_and_allport	89	23.0	2.113	to_hand	poldrack-single-stim	s606	False
404.687	0.1	2.549	407.236	0	PA_without_intermediate	test	ward_and_allport	71	23.0	2.549	to_board	poldrack-single-stim	s606	False
407.245	0.1	1.374	408.619	0	PA_without_intermediate	test	ward_and_allport	89	23.0	1.374	to_hand	poldrack-single-stim	s606	False
408.62	0.1	0.284	408.904	0	PA_without_intermediate	test	ward_and_allport	82	23.0	0.284	to_board	poldrack-single-stim	s606	False
408.913	0.1	0.43	409.343	0	PA_without_intermediate	test	ward_and_allport	89	23.0	0.43	to_hand	poldrack-single-stim	s606	False
409.344	0.1	0.326	409.67	0	PA_without_intermediate	test	ward_and_allport	71	23.0	0.326	to_board	poldrack-single-stim	s606	False
409.678	1.0	2.816	409.677	0	PA_without_intermediate	test	ward_and_allport	-1	23.0	n/a	feedback	poldrack-single-stim	s606	False
412.502	5.826	5.826	418.328	1	PA_with_intermediate	test	ward_and_allport	71	24.0	5.826	to_hand	poldrack-single-stim	s606	False
418.33	0.1	0.496	418.826	0	PA_with_intermediate	test	ward_and_allport	82	24.0	0.496	to_board	poldrack-single-stim	s606	False
418.834	0.1	0.822	419.656	0	PA_with_intermediate	test	ward_and_allport	71	24.0	0.822	to_hand	poldrack-single-stim	s606	False
419.657	0.1	0.363	420.02	0	PA_with_intermediate	test	ward_and_allport	89	24.0	0.363	to_board	poldrack-single-stim	s606	False
420.028	0.1	0.686	420.714	0	PA_with_intermediate	test	ward_and_allport	82	24.0	0.686	to_hand	poldrack-single-stim	s606	False
420.717	0.1	0.392	421.109	0	PA_with_intermediate	test	ward_and_allport	89	24.0	0.392	to_board	poldrack-single-stim	s606	False
421.118	1.0	4.176	421.117	0	PA_with_intermediate	test	ward_and_allport	-1	24.0	n/a	feedback	poldrack-single-stim	s606	False
425.304	4.47	4.47	429.774	1	PA_with_intermediate	test	ward_and_allport	71	25.0	4.47	to_hand	poldrack-single-stim	s606	False
429.775	0.1	0.4	430.175	0	PA_with_intermediate	test	ward_and_allport	82	25.0	0.4	to_board	poldrack-single-stim	s606	False
430.184	0.1	0.822	431.006	0	PA_with_intermediate	test	ward_and_allport	71	25.0	0.822	to_hand	poldrack-single-stim	s606	False
431.007	0.1	0.297	431.304	0	PA_with_intermediate	test	ward_and_allport	89	25.0	0.297	to_board	poldrack-single-stim	s606	False
431.313	0.1	0.411	431.724	0	PA_with_intermediate	test	ward_and_allport	82	25.0	0.411	to_hand	poldrack-single-stim	s606	False
431.725	0.1	0.295	432.02	0	PA_with_intermediate	test	ward_and_allport	89	25.0	0.295	to_board	poldrack-single-stim	s606	False
432.029	0.1	2.268	434.297	0	PA_with_intermediate	test	ward_and_allport	71	25.0	2.268	to_hand	poldrack-single-stim	s606	False
434.298	0.1	1.13	435.428	0	PA_with_intermediate	test	ward_and_allport	71	25.0	1.13	to_board	poldrack-single-stim	s606	False
435.437	0.1	1.07	436.507	0	PA_with_intermediate	test	ward_and_allport	89	25.0	1.07	to_hand	poldrack-single-stim	s606	False
436.508	0.1	0.255	436.763	0	PA_with_intermediate	test	ward_and_allport	71	25.0	0.255	to_board	poldrack-single-stim	s606	False
436.774	1.0	3.36	436.773	0	PA_with_intermediate	test	ward_and_allport	-1	25.0	n/a	feedback	poldrack-single-stim	s606	False
440.144	3.183	3.183	443.327	1	PA_with_intermediate	test	ward_and_allport	89	26.0	3.183	to_hand	poldrack-single-stim	s606	False
443.328	0.1	0.407	443.735	0	PA_with_intermediate	test	ward_and_allport	82	26.0	0.407	to_board	poldrack-single-stim	s606	False
443.746	0.1	1.336	445.082	0	PA_with_intermediate	test	ward_and_allport	89	26.0	1.336	to_hand	poldrack-single-stim	s606	False
445.084	0.1	0.785	445.869	0	PA_with_intermediate	test	ward_and_allport	71	26.0	0.785	to_board	poldrack-single-stim	s606	False
445.88	0.1	0.394	446.274	0	PA_with_intermediate	test	ward_and_allport	82	26.0	0.394	to_hand	poldrack-single-stim	s606	False
446.275	0.1	0.711	446.986	0	PA_with_intermediate	test	ward_and_allport	71	26.0	0.711	to_board	poldrack-single-stim	s606	False
447.001	1.0	2.0	447.0	0	PA_with_intermediate	test	ward_and_allport	-1	26.0	n/a	feedback	poldrack-single-stim	s606	False
449.013	3.627	3.627	452.64	1	PA_without_intermediate	test	ward_and_allport	89	27.0	3.627	to_hand	poldrack-single-stim	s606	False
452.642	0.1	0.589	453.231	0	PA_without_intermediate	test	ward_and_allport	71	27.0	0.589	to_board	poldrack-single-stim	s606	False
453.239	0.1	0.596	453.835	0	PA_without_intermediate	test	ward_and_allport	89	27.0	0.596	to_hand	poldrack-single-stim	s606	False
453.835	0.1	0.456	454.291	0	PA_without_intermediate	test	ward_and_allport	82	27.0	0.456	to_board	poldrack-single-stim	s606	False
454.3	0.1	1.134	455.434	0	PA_without_intermediate	test	ward_and_allport	89	27.0	1.134	to_hand	poldrack-single-stim	s606	False
455.436	0.1	0.38	455.816	0	PA_without_intermediate	test	ward_and_allport	71	27.0	0.38	to_board	poldrack-single-stim	s606	False
455.831	1.0	2.408	455.83	0	PA_without_intermediate	test	ward_and_allport	-1	27.0	n/a	feedback	poldrack-single-stim	s606	False
458.25	4.79	4.79	463.04	1	PA_with_intermediate	test	ward_and_allport	82	28.0	4.79	to_hand	poldrack-single-stim	s606	False
463.041	0.1	0.392	463.433	0	PA_with_intermediate	test	ward_and_allport	89	28.0	0.392	to_board	poldrack-single-stim	s606	False
463.442	0.1	0.83	464.272	0	PA_with_intermediate	test	ward_and_allport	82	28.0	0.83	to_hand	poldrack-single-stim	s606	False
464.273	0.1	0.406	464.679	0	PA_with_intermediate	test	ward_and_allport	71	28.0	0.406	to_board	poldrack-single-stim	s606	False
464.691	0.1	0.962	465.653	0	PA_with_intermediate	test	ward_and_allport	89	28.0	0.962	to_hand	poldrack-single-stim	s606	False
465.654	0.1	0.654	466.308	0	PA_with_intermediate	test	ward_and_allport	71	28.0	0.654	to_board	poldrack-single-stim	s606	False
466.324	1.0	2.816	466.323	0	PA_with_intermediate	test	ward_and_allport	-1	28.0	n/a	feedback	poldrack-single-stim	s606	False
469.15	2.795	2.795	471.945	1	PA_without_intermediate	test	ward_and_allport	82	29.0	2.795	to_hand	poldrack-single-stim	s606	False
471.947	0.1	0.344	472.291	0	PA_without_intermediate	test	ward_and_allport	89	29.0	0.344	to_board	poldrack-single-stim	s606	False
472.3	0.1	2.88	475.18	0	PA_without_intermediate	test	ward_and_allport	82	29.0	2.88	to_hand	poldrack-single-stim	s606	False
475.182	0.1	0.416	475.598	0	PA_without_intermediate	test	ward_and_allport	89	29.0	0.416	to_board	poldrack-single-stim	s606	False
475.609	0.1	1.443	477.052	0	PA_without_intermediate	test	ward_and_allport	82	29.0	1.443	to_hand	poldrack-single-stim	s606	False
477.053	0.1	0.404	477.457	0	PA_without_intermediate	test	ward_and_allport	71	29.0	0.404	to_board	poldrack-single-stim	s606	False
477.472	1.0	3.088	477.471	0	PA_without_intermediate	test	ward_and_allport	-1	29.0	n/a	feedback	poldrack-single-stim	s606	False
485.572	2.893	2.893	488.465	1	PA_without_intermediate	test	ward_and_allport	82	30.0	2.893	to_hand	poldrack-single-stim	s606	False
488.466	0.1	0.927	489.393	0	PA_without_intermediate	test	ward_and_allport	71	30.0	0.927	to_board	poldrack-single-stim	s606	False
489.405	0.1	1.53	490.935	0	PA_without_intermediate	test	ward_and_allport	82	30.0	1.53	to_hand	poldrack-single-stim	s606	False
490.936	0.1	0.366	491.302	0	PA_without_intermediate	test	ward_and_allport	71	30.0	0.366	to_board	poldrack-single-stim	s606	False
491.313	0.1	1.266	492.579	0	PA_without_intermediate	test	ward_and_allport	82	30.0	1.266	to_hand	poldrack-single-stim	s606	False
492.58	0.1	0.269	492.849	0	PA_without_intermediate	test	ward_and_allport	89	30.0	0.269	to_board	poldrack-single-stim	s606	False
492.862	1.0	2.136	492.861	0	PA_without_intermediate	test	ward_and_allport	-1	30.0	n/a	feedback	poldrack-single-stim	s606	False
495.008	3.107	3.107	498.115	1	PA_without_intermediate	test	ward_and_allport	82	31.0	3.107	to_hand	poldrack-single-stim	s606	False
498.116	0.1	0.382	498.498	0	PA_without_intermediate	test	ward_and_allport	89	31.0	0.382	to_board	poldrack-single-stim	s606	False
498.511	0.1	1.061	499.572	0	PA_without_intermediate	test	ward_and_allport	82	31.0	1.061	to_hand	poldrack-single-stim	s606	False
499.574	0.1	0.288	499.862	0	PA_without_intermediate	test	ward_and_allport	71	31.0	0.288	to_board	poldrack-single-stim	s606	False
499.874	0.1	0.846	500.72	0	PA_without_intermediate	test	ward_and_allport	82	31.0	0.846	to_hand	poldrack-single-stim	s606	False
500.721	0.1	0.315	501.036	0	PA_without_intermediate	test	ward_and_allport	89	31.0	0.315	to_board	poldrack-single-stim	s606	False
501.051	1.0	7.168	501.05	0	PA_without_intermediate	test	ward_and_allport	-1	31.0	n/a	feedback	poldrack-single-stim	s606	False
508.226	4.783	4.783	513.009	1	PA_without_intermediate	test	ward_and_allport	71	32.0	4.783	to_hand	poldrack-single-stim	s606	False
513.01	0.1	0.41	513.42	0	PA_without_intermediate	test	ward_and_allport	89	32.0	0.41	to_board	poldrack-single-stim	s606	False
513.431	0.1	1.762	515.193	0	PA_without_intermediate	test	ward_and_allport	71	32.0	1.762	to_hand	poldrack-single-stim	s606	False
515.194	0.1	0.366	515.56	0	PA_without_intermediate	test	ward_and_allport	82	32.0	0.366	to_board	poldrack-single-stim	s606	False
515.573	0.1	0.559	516.132	0	PA_without_intermediate	test	ward_and_allport	71	32.0	0.559	to_hand	poldrack-single-stim	s606	False
516.132	0.1	0.24	516.372	0	PA_without_intermediate	test	ward_and_allport	89	32.0	0.24	to_board	poldrack-single-stim	s606	False
516.385	1.0	2.816	516.384	0	PA_without_intermediate	test	ward_and_allport	-1	32.0	n/a	feedback	poldrack-single-stim	s606	False
519.213	8.421	8.421	527.634	1	PA_with_intermediate	test	ward_and_allport	89	33.0	8.421	to_hand	poldrack-single-stim	s606	False
527.635	0.1	0.916	528.551	0	PA_with_intermediate	test	ward_and_allport	71	33.0	0.916	to_board	poldrack-single-stim	s606	False
528.562	0.1	1.223	529.785	0	PA_with_intermediate	test	ward_and_allport	89	33.0	1.223	to_hand	poldrack-single-stim	s606	False
529.786	0.1	0.41	530.196	0	PA_with_intermediate	test	ward_and_allport	82	33.0	0.41	to_board	poldrack-single-stim	s606	False
530.209	0.1	0.59	530.799	0	PA_with_intermediate	test	ward_and_allport	71	33.0	0.59	to_hand	poldrack-single-stim	s606	False
530.8	0.1	0.278	531.078	0	PA_with_intermediate	test	ward_and_allport	89	33.0	0.278	to_board	poldrack-single-stim	s606	False
531.093	1.0	2.952	531.092	0	PA_with_intermediate	test	ward_and_allport	-1	33.0	n/a	feedback	poldrack-single-stim	s606	False
534.058	2.409	2.409	536.467	1	PA_with_intermediate	test	ward_and_allport	89	34.0	2.409	to_hand	poldrack-single-stim	s606	False
536.468	0.1	2.533	539.001	0	PA_with_intermediate	test	ward_and_allport	71	34.0	2.533	to_board	poldrack-single-stim	s606	False
539.012	0.1	0.446	539.458	0	PA_with_intermediate	test	ward_and_allport	89	34.0	0.446	to_hand	poldrack-single-stim	s606	False
539.459	0.1	0.294	539.753	0	PA_with_intermediate	test	ward_and_allport	82	34.0	0.294	to_board	poldrack-single-stim	s606	False
539.767	0.1	0.599	540.366	0	PA_with_intermediate	test	ward_and_allport	71	34.0	0.599	to_hand	poldrack-single-stim	s606	False
540.368	0.1	0.258	540.626	0	PA_with_intermediate	test	ward_and_allport	82	34.0	0.258	to_board	poldrack-single-stim	s606	False
540.638	1.0	2.136	540.637	0	PA_with_intermediate	test	ward_and_allport	-1	34.0	n/a	feedback	poldrack-single-stim	s606	False
542.783	2.398	2.398	545.181	1	PA_without_intermediate	test	ward_and_allport	82	35.0	2.398	to_hand	poldrack-single-stim	s606	False
545.183	0.1	0.619	545.802	0	PA_without_intermediate	test	ward_and_allport	89	35.0	0.619	to_board	poldrack-single-stim	s606	False
545.811	0.1	1.049	546.86	0	PA_without_intermediate	test	ward_and_allport	82	35.0	1.049	to_hand	poldrack-single-stim	s606	False
546.861	0.1	0.456	547.317	0	PA_without_intermediate	test	ward_and_allport	71	35.0	0.456	to_board	poldrack-single-stim	s606	False
547.327	0.1	0.811	548.138	0	PA_without_intermediate	test	ward_and_allport	82	35.0	0.811	to_hand	poldrack-single-stim	s606	False
548.139	0.1	0.348	548.487	0	PA_without_intermediate	test	ward_and_allport	89	35.0	0.348	to_board	poldrack-single-stim	s606	False
548.5	1.0	2.68	548.499	0	PA_without_intermediate	test	ward_and_allport	-1	35.0	n/a	feedback	poldrack-single-stim	s606	False
