onset	duration	movement_onset	block_duration	condition	correct	correct_response	experiment_exp_id	key_press	response_time	trial_id	trial_type	worker_id	junk
4.509	1.5	6.294	1.636	BY	1.0	71.0	dot_pattern_expectancy	71.0	0.785	probe	BY	s061	False
8.651	1.5	10.449	1.5	AY	1.0	71.0	dot_pattern_expectancy	71.0	0.798	probe	AY	s061	False
12.656	1.5	14.171	2.044	AX	1.0	89.0	dot_pattern_expectancy	89.0	0.515	probe	AX	s061	False
17.206	1.5	18.753	1.772	BY	1.0	71.0	dot_pattern_expectancy	71.0	0.547	probe	BY	s061	False
21.483	1.5	23.3	1.636	BX	1.0	71.0	dot_pattern_expectancy	71.0	0.817	probe	BX	s061	False
25.625	1.5	27.37	1.636	AX	1.0	89.0	dot_pattern_expectancy	89.0	0.745	probe	AX	s061	False
29.766	1.5	31.559	1.5	AX	1.0	89.0	dot_pattern_expectancy	89.0	0.793	probe	AX	s061	False
33.771	1.5	35.641	1.5	AX	1.0	89.0	dot_pattern_expectancy	89.0	0.87	probe	AX	s061	False
37.777	1.5	39.557	2.044	AY	1.0	71.0	dot_pattern_expectancy	71.0	0.78	probe	AY	s061	False
42.328	1.5	43.9	2.452	AX	1.0	89.0	dot_pattern_expectancy	89.0	0.572	probe	AX	s061	False
47.287	1.5	49.023	1.908	AX	1.0	89.0	dot_pattern_expectancy	89.0	0.736	probe	AX	s061	False
51.702	1.5	53.401	1.5	AX	1.0	89.0	dot_pattern_expectancy	89.0	0.699	probe	AX	s061	False
55.709	1.5	57.425	1.908	AX	1.0	89.0	dot_pattern_expectancy	89.0	0.716	probe	AX	s061	False
60.124	1.5	61.904	2.18	BX	1.0	71.0	dot_pattern_expectancy	71.0	0.78	probe	BX	s061	False
64.81	1.5	66.426	1.5	AX	1.0	89.0	dot_pattern_expectancy	89.0	0.616	probe	AX	s061	False
68.816	1.5	70.199	1.908	BY	1.0	71.0	dot_pattern_expectancy	71.0	0.383	probe	BY	s061	False
73.229	1.5	74.845	2.316	BX	1.0	71.0	dot_pattern_expectancy	71.0	0.616	probe	BX	s061	False
78.05	1.5	79.87	2.316	AY	1.0	71.0	dot_pattern_expectancy	71.0	0.82	probe	AY	s061	False
82.873	1.5	84.585	1.636	BX	1.0	71.0	dot_pattern_expectancy	71.0	0.712	probe	BX	s061	False
87.015	1.5	88.811	1.5	AY	1.0	71.0	dot_pattern_expectancy	71.0	0.796	probe	AY	s061	False
91.021	1.5	92.527	1.908	BY	1.0	71.0	dot_pattern_expectancy	71.0	0.506	probe	BY	s061	False
95.435	1.5	96.984	1.5	AX	1.0	89.0	dot_pattern_expectancy	89.0	0.549	probe	AX	s061	False
99.444	1.5	101.244	2.316	AY	1.0	71.0	dot_pattern_expectancy	71.0	0.8	probe	AY	s061	False
104.266	1.5	105.92	1.5	AX	1.0	89.0	dot_pattern_expectancy	89.0	0.654	probe	AX	s061	False
108.272	1.5	109.963	2.724	AY	1.0	71.0	dot_pattern_expectancy	71.0	0.691	probe	AY	s061	False
113.503	1.5	115.068	1.5	AX	1.0	89.0	dot_pattern_expectancy	89.0	0.565	probe	AX	s061	False
117.51	1.5	119.057	1.636	AX	1.0	89.0	dot_pattern_expectancy	89.0	0.547	probe	AX	s061	False
121.653	1.5	123.179	1.636	AX	1.0	89.0	dot_pattern_expectancy	89.0	0.526	probe	AX	s061	False
125.794	1.5	127.556	1.772	AX	1.0	89.0	dot_pattern_expectancy	89.0	0.762	probe	AX	s061	False
130.072	1.5	131.49	1.772	BY	1.0	71.0	dot_pattern_expectancy	71.0	0.418	probe	BY	s061	False
134.351	1.5	135.97	1.5	AX	1.0	89.0	dot_pattern_expectancy	89.0	0.619	probe	AX	s061	False
138.356	1.5	140.085	2.452	BY	1.0	71.0	dot_pattern_expectancy	71.0	0.729	probe	BY	s061	False
143.314	1.5	145.04	1.636	AX	1.0	89.0	dot_pattern_expectancy	89.0	0.726	probe	AX	s061	False
147.455	1.5	149.082	1.636	AX	1.0	89.0	dot_pattern_expectancy	89.0	0.627	probe	AX	s061	False
151.597	1.5	152.966	1.5	BX	1.0	71.0	dot_pattern_expectancy	71.0	0.369	probe	BX	s061	False
155.604	1.5	157.345	1.5	BX	1.0	71.0	dot_pattern_expectancy	71.0	0.741	probe	BX	s061	False
159.609	1.5	161.178	2.316	AX	1.0	89.0	dot_pattern_expectancy	89.0	0.569	probe	AX	s061	False
164.432	1.5	166.201	2.044	AY	1.0	71.0	dot_pattern_expectancy	71.0	0.769	probe	AY	s061	False
168.981	1.5	170.638	3.948	AX	1.0	89.0	dot_pattern_expectancy	89.0	0.657	probe	AX	s061	False
175.435	1.5	177.153	1.636	AX	1.0	89.0	dot_pattern_expectancy	89.0	0.718	probe	AX	s061	False
190.083	1.5	191.768	1.636	AY	1.0	71.0	dot_pattern_expectancy	71.0	0.685	probe	AY	s061	False
194.224	1.5	195.8	1.636	AX	1.0	89.0	dot_pattern_expectancy	89.0	0.576	probe	AX	s061	False
198.367	1.5	199.98	1.5	AX	1.0	89.0	dot_pattern_expectancy	89.0	0.613	probe	AX	s061	False
202.374	1.5	204.066	1.5	AX	1.0	89.0	dot_pattern_expectancy	89.0	0.692	probe	AX	s061	False
206.381	1.5	207.98	1.908	AX	1.0	89.0	dot_pattern_expectancy	89.0	0.599	probe	AX	s061	False
210.795	1.5	212.133	1.636	BX	1.0	71.0	dot_pattern_expectancy	71.0	0.338	probe	BX	s061	False
214.936	1.5	216.459	2.044	AX	1.0	89.0	dot_pattern_expectancy	89.0	0.523	probe	AX	s061	False
219.485	1.5	220.986	1.772	AX	1.0	89.0	dot_pattern_expectancy	89.0	0.501	probe	AX	s061	False
223.763	1.5	225.47	1.5	AX	1.0	89.0	dot_pattern_expectancy	89.0	0.707	probe	AX	s061	False
227.768	1.5	229.447	2.18	AX	1.0	89.0	dot_pattern_expectancy	89.0	0.679	probe	AX	s061	False
232.455	1.5	233.954	1.5	AX	1.0	89.0	dot_pattern_expectancy	89.0	0.499	probe	AX	s061	False
236.461	1.5	238.12	3.676	BX	1.0	71.0	dot_pattern_expectancy	71.0	0.659	probe	BX	s061	False
242.642	1.5	244.105	1.636	BY	1.0	71.0	dot_pattern_expectancy	71.0	0.463	probe	BY	s061	False
246.783	1.5	248.415	1.636	BY	1.0	71.0	dot_pattern_expectancy	71.0	0.632	probe	BY	s061	False
250.925	1.5	252.301	1.5	BX	1.0	71.0	dot_pattern_expectancy	71.0	0.376	probe	BX	s061	False
254.931	1.5	256.453	1.908	AX	1.0	89.0	dot_pattern_expectancy	89.0	0.522	probe	AX	s061	False
259.344	1.5	260.84	1.636	AX	1.0	89.0	dot_pattern_expectancy	89.0	0.496	probe	AX	s061	False
263.485	1.5	264.847	1.5	BX	1.0	71.0	dot_pattern_expectancy	71.0	0.362	probe	BX	s061	False
267.491	1.5	269.022	1.908	AX	1.0	89.0	dot_pattern_expectancy	89.0	0.531	probe	AX	s061	False
271.905	1.5	273.41	2.18	BY	1.0	71.0	dot_pattern_expectancy	71.0	0.505	probe	BY	s061	False
276.59	1.5	278.03	1.772	AX	1.0	89.0	dot_pattern_expectancy	89.0	0.44	probe	AX	s061	False
280.869	1.5	282.417	1.5	AX	1.0	89.0	dot_pattern_expectancy	89.0	0.548	probe	AX	s061	False
284.875	1.5	286.342	1.5	AX	1.0	89.0	dot_pattern_expectancy	89.0	0.467	probe	AX	s061	False
288.882	1.5	290.484	2.044	AX	1.0	89.0	dot_pattern_expectancy	89.0	0.602	probe	AX	s061	False
293.431	1.5	295.3	2.86	AX	1.0	89.0	dot_pattern_expectancy	89.0	0.869	probe	AX	s061	False
298.798	1.5	300.331	1.5	BX	1.0	71.0	dot_pattern_expectancy	71.0	0.533	probe	BX	s061	False
302.803	1.5	304.246	1.772	BY	1.0	71.0	dot_pattern_expectancy	71.0	0.443	probe	BY	s061	False
307.082	1.5	308.593	1.772	AX	1.0	89.0	dot_pattern_expectancy	89.0	0.511	probe	AX	s061	False
311.358	1.5	312.857	2.86	AX	1.0	89.0	dot_pattern_expectancy	89.0	0.499	probe	AX	s061	False
316.723	1.5	318.248	1.772	AX	1.0	89.0	dot_pattern_expectancy	89.0	0.525	probe	AX	s061	False
321.001	1.5	322.568	1.636	BX	1.0	71.0	dot_pattern_expectancy	71.0	0.567	probe	BX	s061	False
325.142	1.5	326.663	2.452	BX	1.0	71.0	dot_pattern_expectancy	71.0	0.521	probe	BX	s061	False
330.098	1.5	331.642	1.636	AX	1.0	89.0	dot_pattern_expectancy	89.0	0.544	probe	AX	s061	False
334.24	1.5	335.609	1.5	BX	1.0	71.0	dot_pattern_expectancy	71.0	0.369	probe	BX	s061	False
338.246	1.5	339.746	1.636	AX	1.0	89.0	dot_pattern_expectancy	89.0	0.5	probe	AX	s061	False
342.387	1.5	343.868	1.636	AX	1.0	89.0	dot_pattern_expectancy	89.0	0.481	probe	AX	s061	False
346.53	1.5	347.834	2.18	BY	1.0	71.0	dot_pattern_expectancy	71.0	0.304	probe	BY	s061	False
351.215	1.5	352.712	1.5	AX	1.0	89.0	dot_pattern_expectancy	89.0	0.497	probe	AX	s061	False
355.221	1.5	356.963	1.636	AY	1.0	71.0	dot_pattern_expectancy	71.0	0.742	probe	AY	s061	False
359.361	1.5	361.06	1.636	AX	1.0	89.0	dot_pattern_expectancy	89.0	0.699	probe	AX	s061	False
374.009	1.5	375.564	2.18	AX	1.0	89.0	dot_pattern_expectancy	89.0	0.555	probe	AX	s061	False
378.695	1.5	380.297	2.316	AY	1.0	71.0	dot_pattern_expectancy	71.0	0.602	probe	AY	s061	False
383.517	1.5	385.333	1.636	AY	1.0	71.0	dot_pattern_expectancy	71.0	0.816	probe	AY	s061	False
387.658	1.5	389.347	1.908	BX	1.0	71.0	dot_pattern_expectancy	71.0	0.689	probe	BX	s061	False
392.071	1.5	393.502	3.54	AX	1.0	89.0	dot_pattern_expectancy	89.0	0.431	probe	AX	s061	False
398.117	1.5	399.509	1.636	BX	1.0	71.0	dot_pattern_expectancy	71.0	0.392	probe	BX	s061	False
402.258	1.5	404.057	1.5	BY	1.0	71.0	dot_pattern_expectancy	71.0	0.799	probe	BY	s061	False
406.264	1.5	408.316	1.5	AX	1.0	89.0	dot_pattern_expectancy	89.0	1.052	probe	AX	s061	False
410.27	1.5	411.797	1.772	AX	1.0	89.0	dot_pattern_expectancy	89.0	0.527	probe	AX	s061	False
414.548	1.5	415.838	2.452	BY	1.0	71.0	dot_pattern_expectancy	71.0	0.29	probe	BY	s061	False
419.508	1.5	421.37	1.908	AX	1.0	89.0	dot_pattern_expectancy	89.0	0.862	probe	AX	s061	False
423.923	1.5	425.322	1.636	BX	1.0	71.0	dot_pattern_expectancy	71.0	0.399	probe	BX	s061	False
428.064	1.5	429.648	1.5	AX	1.0	89.0	dot_pattern_expectancy	89.0	0.584	probe	AX	s061	False
432.07	1.5	433.537	1.636	AX	1.0	89.0	dot_pattern_expectancy	89.0	0.467	probe	AX	s061	False
436.212	1.5	437.71	1.636	AX	1.0	89.0	dot_pattern_expectancy	89.0	0.498	probe	AX	s061	False
440.354	1.5	441.672	2.452	BY	1.0	71.0	dot_pattern_expectancy	71.0	0.318	probe	BY	s061	False
445.312	1.5	446.831	1.5	AX	1.0	89.0	dot_pattern_expectancy	89.0	0.519	probe	AX	s061	False
449.32	1.5	451.112	1.5	BY	1.0	71.0	dot_pattern_expectancy	71.0	0.792	probe	BY	s061	False
453.328	1.5	454.822	1.636	AX	1.0	89.0	dot_pattern_expectancy	89.0	0.494	probe	AX	s061	False
457.471	1.5	458.938	1.636	AX	1.0	89.0	dot_pattern_expectancy	89.0	0.467	probe	AX	s061	False
461.615	1.5	463.497	1.636	AY	1.0	71.0	dot_pattern_expectancy	71.0	0.882	probe	AY	s061	False
465.759	1.5	467.378	1.5	AX	1.0	89.0	dot_pattern_expectancy	89.0	0.619	probe	AX	s061	False
469.765	1.5	471.483	1.5	AX	1.0	89.0	dot_pattern_expectancy	89.0	0.718	probe	AX	s061	False
473.772	1.5	475.315	1.772	AX	1.0	89.0	dot_pattern_expectancy	89.0	0.543	probe	AX	s061	False
478.05	1.5	479.519	2.18	AX	1.0	89.0	dot_pattern_expectancy	89.0	0.469	probe	AX	s061	False
482.736	1.5	484.097	1.772	BX	1.0	71.0	dot_pattern_expectancy	71.0	0.361	probe	BX	s061	False
487.016	1.5	488.665	1.5	BY	1.0	71.0	dot_pattern_expectancy	71.0	0.649	probe	BY	s061	False
491.022	1.5	492.507	1.5	AX	1.0	89.0	dot_pattern_expectancy	89.0	0.485	probe	AX	s061	False
495.031	1.5	496.639	1.636	AX	1.0	89.0	dot_pattern_expectancy	89.0	0.608	probe	AX	s061	False
499.174	1.5	500.966	2.18	AY	1.0	71.0	dot_pattern_expectancy	71.0	0.792	probe	AY	s061	False
503.861	1.5	505.609	2.316	AY	1.0	71.0	dot_pattern_expectancy	71.0	0.748	probe	AY	s061	False
508.684	1.5	510.718	1.636	BX	1.0	71.0	dot_pattern_expectancy	71.0	1.034	probe	BX	s061	False
512.828	1.5	514.632	2.18	BX	1.0	71.0	dot_pattern_expectancy	71.0	0.804	probe	BX	s061	False
517.516	1.5	519.187	2.044	AY	1.0	71.0	dot_pattern_expectancy	71.0	0.671	probe	AY	s061	False
522.066	1.5	523.584	1.772	AX	1.0	89.0	dot_pattern_expectancy	89.0	0.518	probe	AX	s061	False
526.346	1.5	528.662	1.5	AX	1.0	89.0	dot_pattern_expectancy	89.0	1.316	probe	AX	s061	False
530.354	1.5	531.726	2.18	AX	1.0	89.0	dot_pattern_expectancy	89.0	0.372	probe	AX	s061	False
535.043	1.5	536.66	2.452	AY	1.0	71.0	dot_pattern_expectancy	71.0	0.617	probe	AY	s061	False
540.001	1.5	541.747	1.636	AX	1.0	89.0	dot_pattern_expectancy	89.0	0.746	probe	AX	s061	False
544.144	1.5	545.736	1.908	AX	1.0	89.0	dot_pattern_expectancy	89.0	0.592	probe	AX	s061	False
559.064	1.5	560.601	1.772	AX	1.0	89.0	dot_pattern_expectancy	89.0	0.537	probe	AX	s061	False
563.343	1.5	564.822	1.5	AX	1.0	89.0	dot_pattern_expectancy	89.0	0.479	probe	AX	s061	False
567.35	1.5	569.02	2.452	AY	1.0	71.0	dot_pattern_expectancy	71.0	0.67	probe	AY	s061	False
572.307	1.5	573.956	1.772	AY	1.0	71.0	dot_pattern_expectancy	71.0	0.649	probe	AY	s061	False
576.586	1.5	578.212	1.908	AX	1.0	89.0	dot_pattern_expectancy	89.0	0.626	probe	AX	s061	False
581.001	1.5	582.724	1.908	AX	1.0	89.0	dot_pattern_expectancy	89.0	0.723	probe	AX	s061	False
585.416	1.5	586.928	2.588	AX	1.0	89.0	dot_pattern_expectancy	89.0	0.512	probe	AX	s061	False
590.511	1.5	592.204	1.5	AY	1.0	71.0	dot_pattern_expectancy	71.0	0.693	probe	AY	s061	False
594.518	1.5	596.246	1.5	BY	1.0	71.0	dot_pattern_expectancy	71.0	0.728	probe	BY	s061	False
598.525	1.5	599.859	1.5	BY	1.0	71.0	dot_pattern_expectancy	71.0	0.334	probe	BY	s061	False
602.533	1.5	603.975	1.636	AX	1.0	89.0	dot_pattern_expectancy	89.0	0.442	probe	AX	s061	False
606.676	1.5	607.982	2.044	BX	1.0	71.0	dot_pattern_expectancy	71.0	0.306	probe	BX	s061	False
611.226	1.5	612.67	1.772	AX	1.0	89.0	dot_pattern_expectancy	89.0	0.444	probe	AX	s061	False
615.504	1.5	616.784	2.588	BX	1.0	71.0	dot_pattern_expectancy	71.0	0.28	probe	BX	s061	False
620.597	1.5	622.464	1.5	AY	1.0	71.0	dot_pattern_expectancy	71.0	0.867	probe	AY	s061	False
624.602	1.5	626.412	2.452	AX	1.0	89.0	dot_pattern_expectancy	89.0	0.81	probe	AX	s061	False
629.562	1.5	630.819	1.636	BY	1.0	71.0	dot_pattern_expectancy	71.0	0.257	probe	BY	s061	False
633.704	1.5	635.249	1.636	AX	1.0	89.0	dot_pattern_expectancy	89.0	0.545	probe	AX	s061	False
637.846	1.5	639.351	1.5	AX	1.0	89.0	dot_pattern_expectancy	89.0	0.505	probe	AX	s061	False
641.852	1.5	643.113	1.636	BY	1.0	71.0	dot_pattern_expectancy	71.0	0.261	probe	BY	s061	False
645.996	1.5	647.495	1.5	AX	1.0	89.0	dot_pattern_expectancy	89.0	0.499	probe	AX	s061	False
650.002	1.5	651.576	2.18	AY	1.0	71.0	dot_pattern_expectancy	71.0	0.574	probe	AY	s061	False
654.689	1.5	656.357	1.5	AX	1.0	89.0	dot_pattern_expectancy	89.0	0.668	probe	AX	s061	False
658.695	1.5	660.187	1.908	AX	1.0	89.0	dot_pattern_expectancy	89.0	0.492	probe	AX	s061	False
663.112	1.5	664.409	1.636	BY	1.0	71.0	dot_pattern_expectancy	71.0	0.297	probe	BY	s061	False
667.255	1.5	668.985	1.636	BY	1.0	71.0	dot_pattern_expectancy	71.0	0.73	probe	BY	s061	False
671.399	1.5	672.912	1.636	AX	1.0	89.0	dot_pattern_expectancy	89.0	0.513	probe	AX	s061	False
675.542	1.5	677.051	1.5	AX	1.0	89.0	dot_pattern_expectancy	89.0	0.509	probe	AX	s061	False
679.549	1.5	680.873	2.044	BY	1.0	71.0	dot_pattern_expectancy	71.0	0.324	probe	BY	s061	False
684.099	1.5	685.841	2.18	AY	1.0	71.0	dot_pattern_expectancy	71.0	0.742	probe	AY	s061	False
688.786	1.5	690.446	1.636	AY	1.0	71.0	dot_pattern_expectancy	71.0	0.66	probe	AY	s061	False
692.931	1.5	694.617	1.772	AY	1.0	71.0	dot_pattern_expectancy	71.0	0.686	probe	AY	s061	False
697.208	1.5	698.733	1.5	BY	1.0	71.0	dot_pattern_expectancy	71.0	0.525	probe	BY	s061	False
701.214	1.5	702.653	1.908	BX	1.0	71.0	dot_pattern_expectancy	71.0	0.439	probe	BX	s061	False
705.63	1.5	707.08	2.044	AX	1.0	89.0	dot_pattern_expectancy	89.0	0.45	probe	AX	s061	False
710.18	1.5	711.953	1.636	AX	1.0	89.0	dot_pattern_expectancy	89.0	0.773	probe	AX	s061	False
714.322	1.5	715.83	1.772	AX	1.0	89.0	dot_pattern_expectancy	89.0	0.508	probe	AX	s061	False
718.601	1.5	720.191	1.636	AX	1.0	89.0	dot_pattern_expectancy	89.0	0.59	probe	AX	s061	False
722.745	1.5	724.1	1.772	BX	1.0	71.0	dot_pattern_expectancy	71.0	0.355	probe	BX	s061	False
727.024	1.5	728.478	1.5	AX	1.0	89.0	dot_pattern_expectancy	89.0	0.454	probe	AX	s061	False
