onset	duration	block_duration	movement_onset	planning	condition	exp_stage	experiment_exp_id	key_press	problem_id	response_time	trial_id	trial_type	worker_id	junk
3.012	3.465	3.465	6.477	1	UA_with_intermediate	practice	ward_and_allport	71	0.0	3.465	to_hand	poldrack-single-stim	s611	False
6.479	0.1	1.797	8.276	0	UA_with_intermediate	practice	ward_and_allport	82	0.0	1.797	to_board	poldrack-single-stim	s611	False
8.278	0.1	0.843	9.121	0	UA_with_intermediate	practice	ward_and_allport	71	0.0	0.843	to_hand	poldrack-single-stim	s611	False
9.122	0.1	0.66	9.782	0	UA_with_intermediate	practice	ward_and_allport	89	0.0	0.66	to_board	poldrack-single-stim	s611	False
9.784	0.1	1.569	11.353	0	UA_with_intermediate	practice	ward_and_allport	82	0.0	1.569	to_hand	poldrack-single-stim	s611	False
11.355	0.1	0.672	12.027	0	UA_with_intermediate	practice	ward_and_allport	89	0.0	0.672	to_board	poldrack-single-stim	s611	False
12.029	1.0	2.5	12.028	0	UA_with_intermediate	practice	ward_and_allport	-1	0.0	n/a	feedback	poldrack-single-stim	s611	False
14.533	4.266	4.266	18.799	1	UA_with_intermediate	practice	ward_and_allport	89	1.0	4.266	to_hand	poldrack-single-stim	s611	False
18.801	0.1	2.336	21.137	0	UA_with_intermediate	practice	ward_and_allport	82	1.0	2.336	to_board	poldrack-single-stim	s611	False
21.14	0.1	0.745	21.885	0	UA_with_intermediate	practice	ward_and_allport	71	1.0	0.745	to_hand	poldrack-single-stim	s611	False
21.885	0.1	0.505	22.39	0	UA_with_intermediate	practice	ward_and_allport	89	1.0	0.505	to_board	poldrack-single-stim	s611	False
22.391	0.1	1.557	23.948	0	UA_with_intermediate	practice	ward_and_allport	82	1.0	1.557	to_hand	poldrack-single-stim	s611	False
23.95	0.1	0.66	24.61	0	UA_with_intermediate	practice	ward_and_allport	89	1.0	0.66	to_board	poldrack-single-stim	s611	False
24.613	1.0	2.1	24.612	0	UA_with_intermediate	practice	ward_and_allport	-1	1.0	n/a	feedback	poldrack-single-stim	s611	False
26.715	3.117	3.117	29.832	1	UA_without_intermediate	practice	ward_and_allport	82	2.0	3.117	to_hand	poldrack-single-stim	s611	False
29.833	0.1	0.66	30.493	0	UA_without_intermediate	practice	ward_and_allport	89	2.0	0.66	to_board	poldrack-single-stim	s611	False
30.495	0.1	0.856	31.351	0	UA_without_intermediate	practice	ward_and_allport	71	2.0	0.856	to_hand	poldrack-single-stim	s611	False
31.352	0.1	0.645	31.997	0	UA_without_intermediate	practice	ward_and_allport	89	2.0	0.645	to_board	poldrack-single-stim	s611	False
32.0	0.1	0.626	32.626	0	UA_without_intermediate	practice	ward_and_allport	71	2.0	0.626	to_hand	poldrack-single-stim	s611	False
32.627	0.1	0.451	33.078	0	UA_without_intermediate	practice	ward_and_allport	89	2.0	0.451	to_board	poldrack-single-stim	s611	False
33.084	1.0	2.2	33.083	0	UA_without_intermediate	practice	ward_and_allport	-1	2.0	n/a	feedback	poldrack-single-stim	s611	False
35.286	2.745	2.745	38.031	1	UA_without_intermediate	practice	ward_and_allport	71	3.0	2.745	to_hand	poldrack-single-stim	s611	False
38.033	0.1	0.528	38.561	0	UA_without_intermediate	practice	ward_and_allport	89	3.0	0.528	to_board	poldrack-single-stim	s611	False
38.564	0.1	0.759	39.323	0	UA_without_intermediate	practice	ward_and_allport	82	3.0	0.759	to_hand	poldrack-single-stim	s611	False
39.325	0.1	0.605	39.93	0	UA_without_intermediate	practice	ward_and_allport	89	3.0	0.605	to_board	poldrack-single-stim	s611	False
39.933	0.1	0.439	40.372	0	UA_without_intermediate	practice	ward_and_allport	71	3.0	0.439	to_hand	poldrack-single-stim	s611	False
40.374	0.1	0.353	40.727	0	UA_without_intermediate	practice	ward_and_allport	89	3.0	0.353	to_board	poldrack-single-stim	s611	False
40.73	1.0	2.0	40.729	0	UA_without_intermediate	practice	ward_and_allport	-1	3.0	n/a	feedback	poldrack-single-stim	s611	False
44.735	4.021	4.021	48.756	1	PA_without_intermediate	test	ward_and_allport	82	0.0	4.021	to_hand	poldrack-single-stim	s611	False
48.758	0.1	0.884	49.642	0	PA_without_intermediate	test	ward_and_allport	71	0.0	0.884	to_board	poldrack-single-stim	s611	False
49.644	0.1	0.984	50.628	0	PA_without_intermediate	test	ward_and_allport	82	0.0	0.984	to_hand	poldrack-single-stim	s611	False
50.628	0.1	0.856	51.484	0	PA_without_intermediate	test	ward_and_allport	89	0.0	0.856	to_board	poldrack-single-stim	s611	False
51.486	0.1	0.497	51.983	0	PA_without_intermediate	test	ward_and_allport	71	0.0	0.497	to_hand	poldrack-single-stim	s611	False
51.985	0.1	0.379	52.364	0	PA_without_intermediate	test	ward_and_allport	89	0.0	0.379	to_board	poldrack-single-stim	s611	False
52.365	0.1	0.446	52.811	0	PA_without_intermediate	test	ward_and_allport	82	0.0	0.446	to_hand	poldrack-single-stim	s611	False
52.812	0.1	0.445	53.257	0	PA_without_intermediate	test	ward_and_allport	89	0.0	0.445	to_board	poldrack-single-stim	s611	False
53.26	0.1	4.886	58.146	0	PA_without_intermediate	test	ward_and_allport	89	0.0	4.886	to_hand	poldrack-single-stim	s611	False
58.148	0.1	0.498	58.646	0	PA_without_intermediate	test	ward_and_allport	71	0.0	0.498	to_board	poldrack-single-stim	s611	False
58.648	0.1	0.633	59.281	0	PA_without_intermediate	test	ward_and_allport	89	0.0	0.633	to_hand	poldrack-single-stim	s611	False
59.283	0.1	0.77	60.053	0	PA_without_intermediate	test	ward_and_allport	71	0.0	0.77	to_board	poldrack-single-stim	s611	False
60.056	0.1	3.838	63.894	0	PA_without_intermediate	test	ward_and_allport	71	0.0	3.838	to_hand	poldrack-single-stim	s611	False
63.895	0.1	0.535	64.43	0	PA_without_intermediate	test	ward_and_allport	82	0.0	0.535	to_board	poldrack-single-stim	s611	False
64.433	0.1	1.155	65.588	0	PA_without_intermediate	test	ward_and_allport	71	0.0	1.155	to_hand	poldrack-single-stim	s611	False
65.59	0.1	0.758	66.348	0	PA_without_intermediate	test	ward_and_allport	89	0.0	0.758	to_board	poldrack-single-stim	s611	False
66.351	0.1	0.503	66.854	0	PA_without_intermediate	test	ward_and_allport	82	0.0	0.503	to_hand	poldrack-single-stim	s611	False
66.855	0.1	0.523	67.378	0	PA_without_intermediate	test	ward_and_allport	71	0.0	0.523	to_board	poldrack-single-stim	s611	False
67.381	0.1	0.398	67.779	0	PA_without_intermediate	test	ward_and_allport	89	0.0	0.398	to_hand	poldrack-single-stim	s611	False
67.781	0.1	0.47	68.251	0	PA_without_intermediate	test	ward_and_allport	71	0.0	0.47	to_board	poldrack-single-stim	s611	False
68.256	1.0	3.088	68.255	0	PA_without_intermediate	test	ward_and_allport	-1	0.0	n/a	feedback	poldrack-single-stim	s611	False
71.346	3.322	3.322	74.668	1	PA_with_intermediate	test	ward_and_allport	82	1.0	3.322	to_hand	poldrack-single-stim	s611	False
74.67	0.1	0.475	75.145	0	PA_with_intermediate	test	ward_and_allport	89	1.0	0.475	to_board	poldrack-single-stim	s611	False
75.147	0.1	1.221	76.368	0	PA_with_intermediate	test	ward_and_allport	82	1.0	1.221	to_hand	poldrack-single-stim	s611	False
76.37	0.1	1.52	77.89	0	PA_with_intermediate	test	ward_and_allport	71	1.0	1.52	to_board	poldrack-single-stim	s611	False
77.893	0.1	0.398	78.291	0	PA_with_intermediate	test	ward_and_allport	89	1.0	0.398	to_hand	poldrack-single-stim	s611	False
78.292	0.1	0.375	78.667	0	PA_with_intermediate	test	ward_and_allport	71	1.0	0.375	to_board	poldrack-single-stim	s611	False
78.671	1.0	2.0	78.67	0	PA_with_intermediate	test	ward_and_allport	-1	1.0	n/a	feedback	poldrack-single-stim	s611	False
80.675	3.694	3.694	84.369	1	PA_without_intermediate	test	ward_and_allport	71	2.0	3.694	to_hand	poldrack-single-stim	s611	False
84.37	0.1	0.39	84.76	0	PA_without_intermediate	test	ward_and_allport	89	2.0	0.39	to_board	poldrack-single-stim	s611	False
84.762	0.1	0.423	85.185	0	PA_without_intermediate	test	ward_and_allport	71	2.0	0.423	to_hand	poldrack-single-stim	s611	False
85.187	0.1	0.376	85.563	0	PA_without_intermediate	test	ward_and_allport	89	2.0	0.376	to_board	poldrack-single-stim	s611	False
85.567	0.1	0.46	86.027	0	PA_without_intermediate	test	ward_and_allport	71	2.0	0.46	to_hand	poldrack-single-stim	s611	False
86.027	0.1	0.52	86.547	0	PA_without_intermediate	test	ward_and_allport	82	2.0	0.52	to_board	poldrack-single-stim	s611	False
86.555	1.0	2.0	86.554	0	PA_without_intermediate	test	ward_and_allport	-1	2.0	n/a	feedback	poldrack-single-stim	s611	False
88.559	2.451	2.451	91.01	1	PA_without_intermediate	test	ward_and_allport	89	3.0	2.451	to_hand	poldrack-single-stim	s611	False
91.011	0.1	0.581	91.592	0	PA_without_intermediate	test	ward_and_allport	82	3.0	0.581	to_board	poldrack-single-stim	s611	False
91.595	0.1	1.239	92.834	0	PA_without_intermediate	test	ward_and_allport	89	3.0	1.239	to_hand	poldrack-single-stim	s611	False
92.835	0.1	0.408	93.243	0	PA_without_intermediate	test	ward_and_allport	71	3.0	0.408	to_board	poldrack-single-stim	s611	False
93.246	0.1	0.606	93.852	0	PA_without_intermediate	test	ward_and_allport	89	3.0	0.606	to_hand	poldrack-single-stim	s611	False
93.854	0.1	0.588	94.442	0	PA_without_intermediate	test	ward_and_allport	82	3.0	0.588	to_board	poldrack-single-stim	s611	False
94.446	1.0	2.0	94.445	0	PA_without_intermediate	test	ward_and_allport	-1	3.0	n/a	feedback	poldrack-single-stim	s611	False
96.45	2.118	2.118	98.568	1	PA_with_intermediate	test	ward_and_allport	89	4.0	2.118	to_hand	poldrack-single-stim	s611	False
98.57	0.1	0.957	99.527	0	PA_with_intermediate	test	ward_and_allport	71	4.0	0.957	to_board	poldrack-single-stim	s611	False
99.531	0.1	0.567	100.098	0	PA_with_intermediate	test	ward_and_allport	89	4.0	0.567	to_hand	poldrack-single-stim	s611	False
100.099	0.1	0.857	100.956	0	PA_with_intermediate	test	ward_and_allport	82	4.0	0.857	to_board	poldrack-single-stim	s611	False
100.961	0.1	0.462	101.423	0	PA_with_intermediate	test	ward_and_allport	71	4.0	0.462	to_hand	poldrack-single-stim	s611	False
101.424	0.1	1.053	102.477	0	PA_with_intermediate	test	ward_and_allport	82	4.0	1.053	to_board	poldrack-single-stim	s611	False
102.486	1.0	2.544	102.485	0	PA_with_intermediate	test	ward_and_allport	-1	4.0	n/a	feedback	poldrack-single-stim	s611	False
105.034	6.373	6.373	111.407	1	PA_without_intermediate	test	ward_and_allport	71	5.0	6.373	to_hand	poldrack-single-stim	s611	False
111.409	0.1	0.509	111.918	0	PA_without_intermediate	test	ward_and_allport	82	5.0	0.509	to_board	poldrack-single-stim	s611	False
111.92	0.1	0.681	112.601	0	PA_without_intermediate	test	ward_and_allport	71	5.0	0.681	to_hand	poldrack-single-stim	s611	False
112.603	0.1	0.666	113.269	0	PA_without_intermediate	test	ward_and_allport	82	5.0	0.666	to_board	poldrack-single-stim	s611	False
113.273	0.1	0.966	114.239	0	PA_without_intermediate	test	ward_and_allport	71	5.0	0.966	to_hand	poldrack-single-stim	s611	False
114.239	0.1	0.553	114.792	0	PA_without_intermediate	test	ward_and_allport	89	5.0	0.553	to_board	poldrack-single-stim	s611	False
114.801	1.0	2.272	114.8	0	PA_without_intermediate	test	ward_and_allport	-1	5.0	n/a	feedback	poldrack-single-stim	s611	False
117.078	7.55	7.55	124.628	1	PA_with_intermediate	test	ward_and_allport	82	6.0	7.55	to_hand	poldrack-single-stim	s611	False
124.629	0.1	0.451	125.08	0	PA_with_intermediate	test	ward_and_allport	89	6.0	0.451	to_board	poldrack-single-stim	s611	False
125.084	0.1	0.787	125.871	0	PA_with_intermediate	test	ward_and_allport	82	6.0	0.787	to_hand	poldrack-single-stim	s611	False
125.873	0.1	0.414	126.287	0	PA_with_intermediate	test	ward_and_allport	71	6.0	0.414	to_board	poldrack-single-stim	s611	False
126.291	0.1	1.073	127.364	0	PA_with_intermediate	test	ward_and_allport	89	6.0	1.073	to_hand	poldrack-single-stim	s611	False
127.366	0.1	0.552	127.918	0	PA_with_intermediate	test	ward_and_allport	82	6.0	0.552	to_board	poldrack-single-stim	s611	False
127.924	1.0	4.04	127.923	0	PA_with_intermediate	test	ward_and_allport	-1	6.0	n/a	feedback	poldrack-single-stim	s611	False
131.968	3.413	3.413	135.381	1	PA_with_intermediate	test	ward_and_allport	89	7.0	3.413	to_hand	poldrack-single-stim	s611	False
135.383	0.1	0.474	135.857	0	PA_with_intermediate	test	ward_and_allport	82	7.0	0.474	to_board	poldrack-single-stim	s611	False
135.86	0.1	1.475	137.335	0	PA_with_intermediate	test	ward_and_allport	89	7.0	1.475	to_hand	poldrack-single-stim	s611	False
137.337	0.1	0.391	137.728	0	PA_with_intermediate	test	ward_and_allport	71	7.0	0.391	to_board	poldrack-single-stim	s611	False
137.731	0.1	0.547	138.278	0	PA_with_intermediate	test	ward_and_allport	82	7.0	0.547	to_hand	poldrack-single-stim	s611	False
138.279	0.1	0.447	138.726	0	PA_with_intermediate	test	ward_and_allport	89	7.0	0.447	to_board	poldrack-single-stim	s611	False
138.733	1.0	2.272	138.732	0	PA_with_intermediate	test	ward_and_allport	-1	7.0	n/a	feedback	poldrack-single-stim	s611	False
141.011	4.229	4.229	145.24	1	PA_with_intermediate	test	ward_and_allport	82	8.0	4.229	to_hand	poldrack-single-stim	s611	False
145.241	0.1	0.378	145.619	0	PA_with_intermediate	test	ward_and_allport	71	8.0	0.378	to_board	poldrack-single-stim	s611	False
145.624	0.1	0.858	146.482	0	PA_with_intermediate	test	ward_and_allport	82	8.0	0.858	to_hand	poldrack-single-stim	s611	False
146.484	0.1	0.404	146.888	0	PA_with_intermediate	test	ward_and_allport	89	8.0	0.404	to_board	poldrack-single-stim	s611	False
146.893	0.1	0.339	147.232	0	PA_with_intermediate	test	ward_and_allport	71	8.0	0.339	to_hand	poldrack-single-stim	s611	False
147.233	0.1	0.357	147.59	0	PA_with_intermediate	test	ward_and_allport	82	8.0	0.357	to_board	poldrack-single-stim	s611	False
147.6	1.0	2.136	147.599	0	PA_with_intermediate	test	ward_and_allport	-1	8.0	n/a	feedback	poldrack-single-stim	s611	False
149.741	2.149	2.149	151.89	1	PA_with_intermediate	test	ward_and_allport	89	9.0	2.149	to_hand	poldrack-single-stim	s611	False
151.894	0.1	0.479	152.373	0	PA_with_intermediate	test	ward_and_allport	82	9.0	0.479	to_board	poldrack-single-stim	s611	False
152.38	0.1	0.648	153.028	0	PA_with_intermediate	test	ward_and_allport	89	9.0	0.648	to_hand	poldrack-single-stim	s611	False
153.03	0.1	0.411	153.441	0	PA_with_intermediate	test	ward_and_allport	71	9.0	0.411	to_board	poldrack-single-stim	s611	False
153.446	0.1	0.461	153.907	0	PA_with_intermediate	test	ward_and_allport	82	9.0	0.461	to_hand	poldrack-single-stim	s611	False
153.909	0.1	0.344	154.253	0	PA_with_intermediate	test	ward_and_allport	89	9.0	0.344	to_board	poldrack-single-stim	s611	False
154.259	1.0	2.0	154.258	0	PA_with_intermediate	test	ward_and_allport	-1	9.0	n/a	feedback	poldrack-single-stim	s611	False
156.265	2.577	2.577	158.842	1	PA_with_intermediate	test	ward_and_allport	71	10.0	2.577	to_hand	poldrack-single-stim	s611	False
158.844	0.1	0.343	159.187	0	PA_with_intermediate	test	ward_and_allport	89	10.0	0.343	to_board	poldrack-single-stim	s611	False
159.191	0.1	0.376	159.567	0	PA_with_intermediate	test	ward_and_allport	71	10.0	0.376	to_hand	poldrack-single-stim	s611	False
159.568	0.1	0.451	160.019	0	PA_with_intermediate	test	ward_and_allport	82	10.0	0.451	to_board	poldrack-single-stim	s611	False
160.024	0.1	0.374	160.398	0	PA_with_intermediate	test	ward_and_allport	89	10.0	0.374	to_hand	poldrack-single-stim	s611	False
160.399	0.1	0.31	160.709	0	PA_with_intermediate	test	ward_and_allport	71	10.0	0.31	to_board	poldrack-single-stim	s611	False
160.718	1.0	2.0	160.717	0	PA_with_intermediate	test	ward_and_allport	-1	10.0	n/a	feedback	poldrack-single-stim	s611	False
162.724	3.071	3.071	165.795	1	PA_without_intermediate	test	ward_and_allport	89	11.0	3.071	to_hand	poldrack-single-stim	s611	False
165.795	0.1	0.386	166.181	0	PA_without_intermediate	test	ward_and_allport	71	11.0	0.386	to_board	poldrack-single-stim	s611	False
166.187	0.1	0.637	166.824	0	PA_without_intermediate	test	ward_and_allport	89	11.0	0.637	to_hand	poldrack-single-stim	s611	False
166.825	0.1	0.621	167.446	0	PA_without_intermediate	test	ward_and_allport	82	11.0	0.621	to_board	poldrack-single-stim	s611	False
167.452	0.1	0.525	167.977	0	PA_without_intermediate	test	ward_and_allport	89	11.0	0.525	to_hand	poldrack-single-stim	s611	False
167.979	0.1	0.346	168.325	0	PA_without_intermediate	test	ward_and_allport	71	11.0	0.346	to_board	poldrack-single-stim	s611	False
168.331	1.0	2.408	168.33	0	PA_without_intermediate	test	ward_and_allport	-1	11.0	n/a	feedback	poldrack-single-stim	s611	False
170.745	4.601	4.601	175.346	1	PA_with_intermediate	test	ward_and_allport	82	12.0	4.601	to_hand	poldrack-single-stim	s611	False
175.348	0.1	0.425	175.773	0	PA_with_intermediate	test	ward_and_allport	89	12.0	0.425	to_board	poldrack-single-stim	s611	False
175.778	0.1	0.507	176.285	0	PA_with_intermediate	test	ward_and_allport	82	12.0	0.507	to_hand	poldrack-single-stim	s611	False
176.286	0.1	0.397	176.683	0	PA_with_intermediate	test	ward_and_allport	71	12.0	0.397	to_board	poldrack-single-stim	s611	False
176.688	0.1	0.32	177.008	0	PA_with_intermediate	test	ward_and_allport	89	12.0	0.32	to_hand	poldrack-single-stim	s611	False
177.009	0.1	0.362	177.371	0	PA_with_intermediate	test	ward_and_allport	71	12.0	0.362	to_board	poldrack-single-stim	s611	False
177.378	1.0	3.768	177.377	0	PA_with_intermediate	test	ward_and_allport	-1	12.0	n/a	feedback	poldrack-single-stim	s611	False
181.152	2.52	2.52	183.672	1	PA_with_intermediate	test	ward_and_allport	89	13.0	2.52	to_hand	poldrack-single-stim	s611	False
183.674	0.1	0.491	184.165	0	PA_with_intermediate	test	ward_and_allport	82	13.0	0.491	to_board	poldrack-single-stim	s611	False
184.169	0.1	0.42	184.589	0	PA_with_intermediate	test	ward_and_allport	89	13.0	0.42	to_hand	poldrack-single-stim	s611	False
184.591	0.1	0.419	185.01	0	PA_with_intermediate	test	ward_and_allport	71	13.0	0.419	to_board	poldrack-single-stim	s611	False
185.016	0.1	0.411	185.427	0	PA_with_intermediate	test	ward_and_allport	82	13.0	0.411	to_hand	poldrack-single-stim	s611	False
185.429	0.1	0.38	185.809	0	PA_with_intermediate	test	ward_and_allport	71	13.0	0.38	to_board	poldrack-single-stim	s611	False
185.816	1.0	2.68	185.815	0	PA_with_intermediate	test	ward_and_allport	-1	13.0	n/a	feedback	poldrack-single-stim	s611	False
188.502	2.863	2.863	191.365	1	PA_without_intermediate	test	ward_and_allport	82	14.0	2.863	to_hand	poldrack-single-stim	s611	False
191.365	0.1	0.446	191.811	0	PA_without_intermediate	test	ward_and_allport	89	14.0	0.446	to_board	poldrack-single-stim	s611	False
191.816	0.1	4.39	196.206	0	PA_without_intermediate	test	ward_and_allport	82	14.0	4.39	to_hand	poldrack-single-stim	s611	False
196.207	0.1	0.807	197.014	0	PA_without_intermediate	test	ward_and_allport	71	14.0	0.807	to_board	poldrack-single-stim	s611	False
197.02	0.1	2.056	199.076	0	PA_without_intermediate	test	ward_and_allport	89	14.0	2.056	to_hand	poldrack-single-stim	s611	False
199.077	0.1	0.48	199.557	0	PA_without_intermediate	test	ward_and_allport	71	14.0	0.48	to_board	poldrack-single-stim	s611	False
199.563	0.1	0.393	199.956	0	PA_without_intermediate	test	ward_and_allport	82	14.0	0.393	to_hand	poldrack-single-stim	s611	False
199.957	0.1	0.651	200.608	0	PA_without_intermediate	test	ward_and_allport	89	14.0	0.651	to_board	poldrack-single-stim	s611	False
200.615	0.1	1.457	202.072	0	PA_without_intermediate	test	ward_and_allport	71	14.0	1.457	to_hand	poldrack-single-stim	s611	False
202.074	0.1	0.417	202.491	0	PA_without_intermediate	test	ward_and_allport	82	14.0	0.417	to_board	poldrack-single-stim	s611	False
202.497	0.1	0.474	202.971	0	PA_without_intermediate	test	ward_and_allport	71	14.0	0.474	to_hand	poldrack-single-stim	s611	False
202.972	0.1	1.735	204.707	0	PA_without_intermediate	test	ward_and_allport	89	14.0	1.735	to_board	poldrack-single-stim	s611	False
204.713	0.1	0.591	205.304	0	PA_without_intermediate	test	ward_and_allport	82	14.0	0.591	to_hand	poldrack-single-stim	s611	False
205.306	0.1	0.501	205.807	0	PA_without_intermediate	test	ward_and_allport	71	14.0	0.501	to_board	poldrack-single-stim	s611	False
205.813	0.1	0.344	206.157	0	PA_without_intermediate	test	ward_and_allport	89	14.0	0.344	to_hand	poldrack-single-stim	s611	False
206.159	0.1	0.324	206.483	0	PA_without_intermediate	test	ward_and_allport	71	14.0	0.324	to_board	poldrack-single-stim	s611	False
206.492	1.0	3.224	206.491	0	PA_without_intermediate	test	ward_and_allport	-1	14.0	n/a	feedback	poldrack-single-stim	s611	False
214.724	4.377	4.377	219.101	1	PA_without_intermediate	test	ward_and_allport	71	15.0	4.377	to_hand	poldrack-single-stim	s611	False
219.102	0.1	0.469	219.571	0	PA_without_intermediate	test	ward_and_allport	82	15.0	0.469	to_board	poldrack-single-stim	s611	False
219.578	0.1	1.165	220.743	0	PA_without_intermediate	test	ward_and_allport	71	15.0	1.165	to_hand	poldrack-single-stim	s611	False
220.743	0.1	0.428	221.171	0	PA_without_intermediate	test	ward_and_allport	89	15.0	0.428	to_board	poldrack-single-stim	s611	False
221.177	0.1	0.471	221.648	0	PA_without_intermediate	test	ward_and_allport	71	15.0	0.471	to_hand	poldrack-single-stim	s611	False
221.648	0.1	0.472	222.12	0	PA_without_intermediate	test	ward_and_allport	82	15.0	0.472	to_board	poldrack-single-stim	s611	False
222.128	1.0	3.36	222.127	0	PA_without_intermediate	test	ward_and_allport	-1	15.0	n/a	feedback	poldrack-single-stim	s611	False
225.493	2.196	2.196	227.689	1	PA_without_intermediate	test	ward_and_allport	89	16.0	2.196	to_hand	poldrack-single-stim	s611	False
227.69	0.1	0.466	228.156	0	PA_without_intermediate	test	ward_and_allport	82	16.0	0.466	to_board	poldrack-single-stim	s611	False
228.162	0.1	0.503	228.665	0	PA_without_intermediate	test	ward_and_allport	89	16.0	0.503	to_hand	poldrack-single-stim	s611	False
228.666	0.1	0.509	229.175	0	PA_without_intermediate	test	ward_and_allport	82	16.0	0.509	to_board	poldrack-single-stim	s611	False
229.182	0.1	0.433	229.615	0	PA_without_intermediate	test	ward_and_allport	89	16.0	0.433	to_hand	poldrack-single-stim	s611	False
229.616	0.1	0.381	229.997	0	PA_without_intermediate	test	ward_and_allport	71	16.0	0.381	to_board	poldrack-single-stim	s611	False
230.006	1.0	2.0	230.005	0	PA_without_intermediate	test	ward_and_allport	-1	16.0	n/a	feedback	poldrack-single-stim	s611	False
232.011	2.11	2.11	234.121	1	PA_without_intermediate	test	ward_and_allport	82	17.0	2.11	to_hand	poldrack-single-stim	s611	False
234.122	0.1	0.525	234.647	0	PA_without_intermediate	test	ward_and_allport	71	17.0	0.525	to_board	poldrack-single-stim	s611	False
234.654	0.1	1.018	235.672	0	PA_without_intermediate	test	ward_and_allport	82	17.0	1.018	to_hand	poldrack-single-stim	s611	False
235.673	0.1	0.386	236.059	0	PA_without_intermediate	test	ward_and_allport	89	17.0	0.386	to_board	poldrack-single-stim	s611	False
236.065	0.1	0.535	236.6	0	PA_without_intermediate	test	ward_and_allport	82	17.0	0.535	to_hand	poldrack-single-stim	s611	False
236.602	0.1	0.368	236.97	0	PA_without_intermediate	test	ward_and_allport	71	17.0	0.368	to_board	poldrack-single-stim	s611	False
236.976	1.0	2.408	236.975	0	PA_without_intermediate	test	ward_and_allport	-1	17.0	n/a	feedback	poldrack-single-stim	s611	False
239.391	3.347	3.347	242.738	1	PA_with_intermediate	test	ward_and_allport	82	18.0	3.347	to_hand	poldrack-single-stim	s611	False
242.739	0.1	0.463	243.202	0	PA_with_intermediate	test	ward_and_allport	71	18.0	0.463	to_board	poldrack-single-stim	s611	False
243.209	0.1	0.399	243.608	0	PA_with_intermediate	test	ward_and_allport	82	18.0	0.399	to_hand	poldrack-single-stim	s611	False
243.61	0.1	0.39	244.0	0	PA_with_intermediate	test	ward_and_allport	89	18.0	0.39	to_board	poldrack-single-stim	s611	False
244.007	0.1	0.339	244.346	0	PA_with_intermediate	test	ward_and_allport	71	18.0	0.339	to_hand	poldrack-single-stim	s611	False
244.347	0.1	0.476	244.823	0	PA_with_intermediate	test	ward_and_allport	82	18.0	0.476	to_board	poldrack-single-stim	s611	False
244.836	1.0	2.136	244.835	0	PA_with_intermediate	test	ward_and_allport	-1	18.0	n/a	feedback	poldrack-single-stim	s611	False
246.978	3.175	3.175	250.153	1	PA_without_intermediate	test	ward_and_allport	71	19.0	3.175	to_hand	poldrack-single-stim	s611	False
250.154	0.1	0.569	250.723	0	PA_without_intermediate	test	ward_and_allport	82	19.0	0.569	to_board	poldrack-single-stim	s611	False
250.73	0.1	0.424	251.154	0	PA_without_intermediate	test	ward_and_allport	71	19.0	0.424	to_hand	poldrack-single-stim	s611	False
251.155	0.1	0.405	251.56	0	PA_without_intermediate	test	ward_and_allport	82	19.0	0.405	to_board	poldrack-single-stim	s611	False
251.568	0.1	0.837	252.405	0	PA_without_intermediate	test	ward_and_allport	71	19.0	0.837	to_hand	poldrack-single-stim	s611	False
252.406	0.1	0.319	252.725	0	PA_without_intermediate	test	ward_and_allport	89	19.0	0.319	to_board	poldrack-single-stim	s611	False
252.733	1.0	5.128	252.732	0	PA_without_intermediate	test	ward_and_allport	-1	19.0	n/a	feedback	poldrack-single-stim	s611	False
257.869	2.216	2.216	260.085	1	PA_without_intermediate	test	ward_and_allport	71	20.0	2.216	to_hand	poldrack-single-stim	s611	False
260.086	0.1	0.408	260.494	0	PA_without_intermediate	test	ward_and_allport	82	20.0	0.408	to_board	poldrack-single-stim	s611	False
260.502	0.1	0.454	260.956	0	PA_without_intermediate	test	ward_and_allport	71	20.0	0.454	to_hand	poldrack-single-stim	s611	False
260.958	0.1	0.327	261.285	0	PA_without_intermediate	test	ward_and_allport	89	20.0	0.327	to_board	poldrack-single-stim	s611	False
261.293	0.1	0.38	261.673	0	PA_without_intermediate	test	ward_and_allport	71	20.0	0.38	to_hand	poldrack-single-stim	s611	False
261.674	0.1	0.353	262.027	0	PA_without_intermediate	test	ward_and_allport	82	20.0	0.353	to_board	poldrack-single-stim	s611	False
262.038	1.0	2.136	262.037	0	PA_without_intermediate	test	ward_and_allport	-1	20.0	n/a	feedback	poldrack-single-stim	s611	False
264.182	2.976	2.976	267.158	1	PA_without_intermediate	test	ward_and_allport	89	21.0	2.976	to_hand	poldrack-single-stim	s611	False
267.159	0.1	0.329	267.488	0	PA_without_intermediate	test	ward_and_allport	71	21.0	0.329	to_board	poldrack-single-stim	s611	False
267.496	0.1	0.34	267.836	0	PA_without_intermediate	test	ward_and_allport	89	21.0	0.34	to_hand	poldrack-single-stim	s611	False
267.838	0.1	0.476	268.314	0	PA_without_intermediate	test	ward_and_allport	82	21.0	0.476	to_board	poldrack-single-stim	s611	False
268.322	0.1	0.44	268.762	0	PA_without_intermediate	test	ward_and_allport	89	21.0	0.44	to_hand	poldrack-single-stim	s611	False
268.763	0.1	0.315	269.078	0	PA_without_intermediate	test	ward_and_allport	71	21.0	0.315	to_board	poldrack-single-stim	s611	False
269.089	1.0	5.264	269.088	0	PA_without_intermediate	test	ward_and_allport	-1	21.0	n/a	feedback	poldrack-single-stim	s611	False
274.36	3.556	3.556	277.916	1	PA_with_intermediate	test	ward_and_allport	82	22.0	3.556	to_hand	poldrack-single-stim	s611	False
277.917	0.1	0.399	278.316	0	PA_with_intermediate	test	ward_and_allport	71	22.0	0.399	to_board	poldrack-single-stim	s611	False
278.324	0.1	0.78	279.104	0	PA_with_intermediate	test	ward_and_allport	82	22.0	0.78	to_hand	poldrack-single-stim	s611	False
279.106	0.1	0.39	279.496	0	PA_with_intermediate	test	ward_and_allport	89	22.0	0.39	to_board	poldrack-single-stim	s611	False
279.504	0.1	0.394	279.898	0	PA_with_intermediate	test	ward_and_allport	71	22.0	0.394	to_hand	poldrack-single-stim	s611	False
279.899	0.1	0.387	280.286	0	PA_with_intermediate	test	ward_and_allport	89	22.0	0.387	to_board	poldrack-single-stim	s611	False
280.298	1.0	4.04	280.297	0	PA_with_intermediate	test	ward_and_allport	-1	22.0	n/a	feedback	poldrack-single-stim	s611	False
284.347	2.503	2.503	286.85	1	PA_with_intermediate	test	ward_and_allport	89	23.0	2.503	to_hand	poldrack-single-stim	s611	False
286.852	0.1	0.354	287.206	0	PA_with_intermediate	test	ward_and_allport	71	23.0	0.354	to_board	poldrack-single-stim	s611	False
287.214	0.1	0.347	287.561	0	PA_with_intermediate	test	ward_and_allport	89	23.0	0.347	to_hand	poldrack-single-stim	s611	False
287.563	0.1	0.577	288.14	0	PA_with_intermediate	test	ward_and_allport	82	23.0	0.577	to_board	poldrack-single-stim	s611	False
288.149	0.1	0.429	288.578	0	PA_with_intermediate	test	ward_and_allport	71	23.0	0.429	to_hand	poldrack-single-stim	s611	False
288.58	0.1	0.344	288.924	0	PA_with_intermediate	test	ward_and_allport	89	23.0	0.344	to_board	poldrack-single-stim	s611	False
288.933	1.0	2.136	288.932	0	PA_with_intermediate	test	ward_and_allport	-1	23.0	n/a	feedback	poldrack-single-stim	s611	False
291.078	2.731	2.731	293.809	1	PA_with_intermediate	test	ward_and_allport	71	24.0	2.731	to_hand	poldrack-single-stim	s611	False
293.811	0.1	0.356	294.167	0	PA_with_intermediate	test	ward_and_allport	89	24.0	0.356	to_board	poldrack-single-stim	s611	False
294.176	0.1	0.396	294.572	0	PA_with_intermediate	test	ward_and_allport	71	24.0	0.396	to_hand	poldrack-single-stim	s611	False
294.574	0.1	0.491	295.065	0	PA_with_intermediate	test	ward_and_allport	82	24.0	0.491	to_board	poldrack-single-stim	s611	False
295.073	0.1	0.339	295.412	0	PA_with_intermediate	test	ward_and_allport	89	24.0	0.339	to_hand	poldrack-single-stim	s611	False
295.413	0.1	0.71	296.123	0	PA_with_intermediate	test	ward_and_allport	82	24.0	0.71	to_board	poldrack-single-stim	s611	False
296.133	1.0	2.408	296.132	0	PA_with_intermediate	test	ward_and_allport	-1	24.0	n/a	feedback	poldrack-single-stim	s611	False
298.549	2.017	2.017	300.566	1	PA_without_intermediate	test	ward_and_allport	71	25.0	2.017	to_hand	poldrack-single-stim	s611	False
300.567	0.1	0.355	300.922	0	PA_without_intermediate	test	ward_and_allport	89	25.0	0.355	to_board	poldrack-single-stim	s611	False
300.932	0.1	0.368	301.3	0	PA_without_intermediate	test	ward_and_allport	71	25.0	0.368	to_hand	poldrack-single-stim	s611	False
301.3	0.1	0.432	301.732	0	PA_without_intermediate	test	ward_and_allport	82	25.0	0.432	to_board	poldrack-single-stim	s611	False
301.741	0.1	0.326	302.067	0	PA_without_intermediate	test	ward_and_allport	71	25.0	0.326	to_hand	poldrack-single-stim	s611	False
302.068	0.1	0.369	302.437	0	PA_without_intermediate	test	ward_and_allport	89	25.0	0.369	to_board	poldrack-single-stim	s611	False
302.448	1.0	2.68	302.447	0	PA_without_intermediate	test	ward_and_allport	-1	25.0	n/a	feedback	poldrack-single-stim	s611	False
305.139	2.806	2.806	307.945	1	PA_with_intermediate	test	ward_and_allport	89	26.0	2.806	to_hand	poldrack-single-stim	s611	False
307.946	0.1	0.345	308.291	0	PA_with_intermediate	test	ward_and_allport	71	26.0	0.345	to_board	poldrack-single-stim	s611	False
308.3	0.1	0.289	308.589	0	PA_with_intermediate	test	ward_and_allport	89	26.0	0.289	to_hand	poldrack-single-stim	s611	False
308.59	0.1	0.482	309.072	0	PA_with_intermediate	test	ward_and_allport	82	26.0	0.482	to_board	poldrack-single-stim	s611	False
309.081	0.1	0.374	309.455	0	PA_with_intermediate	test	ward_and_allport	71	26.0	0.374	to_hand	poldrack-single-stim	s611	False
309.456	0.1	0.743	310.199	0	PA_with_intermediate	test	ward_and_allport	82	26.0	0.743	to_board	poldrack-single-stim	s611	False
310.211	1.0	4.72	310.21	0	PA_with_intermediate	test	ward_and_allport	-1	26.0	n/a	feedback	poldrack-single-stim	s611	False
314.939	2.547	2.547	317.486	1	PA_without_intermediate	test	ward_and_allport	82	27.0	2.547	to_hand	poldrack-single-stim	s611	False
317.487	0.1	0.421	317.908	0	PA_without_intermediate	test	ward_and_allport	89	27.0	0.421	to_board	poldrack-single-stim	s611	False
317.917	0.1	1.593	319.51	0	PA_without_intermediate	test	ward_and_allport	82	27.0	1.593	to_hand	poldrack-single-stim	s611	False
319.511	0.1	0.391	319.902	0	PA_without_intermediate	test	ward_and_allport	89	27.0	0.391	to_board	poldrack-single-stim	s611	False
319.91	0.1	1.145	321.055	0	PA_without_intermediate	test	ward_and_allport	82	27.0	1.145	to_hand	poldrack-single-stim	s611	False
321.057	0.1	0.322	321.379	0	PA_without_intermediate	test	ward_and_allport	71	27.0	0.322	to_board	poldrack-single-stim	s611	False
321.393	1.0	3.224	321.392	0	PA_without_intermediate	test	ward_and_allport	-1	27.0	n/a	feedback	poldrack-single-stim	s611	False
324.625	3.216	3.216	327.841	1	PA_without_intermediate	test	ward_and_allport	82	28.0	3.216	to_hand	poldrack-single-stim	s611	False
327.842	0.1	0.433	328.275	0	PA_without_intermediate	test	ward_and_allport	71	28.0	0.433	to_board	poldrack-single-stim	s611	False
328.285	0.1	0.749	329.034	0	PA_without_intermediate	test	ward_and_allport	82	28.0	0.749	to_hand	poldrack-single-stim	s611	False
329.035	0.1	0.415	329.45	0	PA_without_intermediate	test	ward_and_allport	71	28.0	0.415	to_board	poldrack-single-stim	s611	False
329.461	0.1	0.579	330.04	0	PA_without_intermediate	test	ward_and_allport	82	28.0	0.579	to_hand	poldrack-single-stim	s611	False
330.041	0.1	0.275	330.316	0	PA_without_intermediate	test	ward_and_allport	89	28.0	0.275	to_board	poldrack-single-stim	s611	False
330.329	1.0	2.272	330.328	0	PA_without_intermediate	test	ward_and_allport	-1	28.0	n/a	feedback	poldrack-single-stim	s611	False
332.609	4.475	4.475	337.084	1	PA_with_intermediate	test	ward_and_allport	71	29.0	4.475	to_hand	poldrack-single-stim	s611	False
337.085	0.1	0.462	337.547	0	PA_with_intermediate	test	ward_and_allport	82	29.0	0.462	to_board	poldrack-single-stim	s611	False
337.555	0.1	0.431	337.986	0	PA_with_intermediate	test	ward_and_allport	71	29.0	0.431	to_hand	poldrack-single-stim	s611	False
337.987	0.1	0.362	338.349	0	PA_with_intermediate	test	ward_and_allport	89	29.0	0.362	to_board	poldrack-single-stim	s611	False
338.359	0.1	0.406	338.765	0	PA_with_intermediate	test	ward_and_allport	82	29.0	0.406	to_hand	poldrack-single-stim	s611	False
338.766	0.1	0.361	339.127	0	PA_with_intermediate	test	ward_and_allport	71	29.0	0.361	to_board	poldrack-single-stim	s611	False
339.14	1.0	3.632	339.139	0	PA_with_intermediate	test	ward_and_allport	-1	29.0	n/a	feedback	poldrack-single-stim	s611	False
347.787	2.374	2.374	350.161	1	PA_without_intermediate	test	ward_and_allport	82	30.0	2.374	to_hand	poldrack-single-stim	s611	False
350.163	0.1	0.524	350.687	0	PA_without_intermediate	test	ward_and_allport	89	30.0	0.524	to_board	poldrack-single-stim	s611	False
350.698	0.1	1.373	352.071	0	PA_without_intermediate	test	ward_and_allport	82	30.0	1.373	to_hand	poldrack-single-stim	s611	False
352.073	0.1	0.599	352.672	0	PA_without_intermediate	test	ward_and_allport	71	30.0	0.599	to_board	poldrack-single-stim	s611	False
352.684	0.1	0.497	353.181	0	PA_without_intermediate	test	ward_and_allport	82	30.0	0.497	to_hand	poldrack-single-stim	s611	False
353.183	0.1	0.365	353.548	0	PA_without_intermediate	test	ward_and_allport	89	30.0	0.365	to_board	poldrack-single-stim	s611	False
353.559	1.0	2.408	353.558	0	PA_without_intermediate	test	ward_and_allport	-1	30.0	n/a	feedback	poldrack-single-stim	s611	False
355.974	2.114	2.114	358.088	1	PA_without_intermediate	test	ward_and_allport	89	31.0	2.114	to_hand	poldrack-single-stim	s611	False
358.09	0.1	0.454	358.544	0	PA_without_intermediate	test	ward_and_allport	71	31.0	0.454	to_board	poldrack-single-stim	s611	False
358.551	0.1	0.768	359.319	0	PA_without_intermediate	test	ward_and_allport	89	31.0	0.768	to_hand	poldrack-single-stim	s611	False
359.32	0.1	0.753	360.073	0	PA_without_intermediate	test	ward_and_allport	71	31.0	0.753	to_board	poldrack-single-stim	s611	False
360.086	0.1	0.383	360.469	0	PA_without_intermediate	test	ward_and_allport	89	31.0	0.383	to_hand	poldrack-single-stim	s611	False
360.469	0.1	0.522	360.991	0	PA_without_intermediate	test	ward_and_allport	82	31.0	0.522	to_board	poldrack-single-stim	s611	False
361.007	1.0	2.0	361.006	0	PA_without_intermediate	test	ward_and_allport	-1	31.0	n/a	feedback	poldrack-single-stim	s611	False
363.015	2.314	2.314	365.329	1	PA_with_intermediate	test	ward_and_allport	82	32.0	2.314	to_hand	poldrack-single-stim	s611	False
365.33	0.1	0.654	365.984	0	PA_with_intermediate	test	ward_and_allport	89	32.0	0.654	to_board	poldrack-single-stim	s611	False
365.993	0.1	2.179	368.172	0	PA_with_intermediate	test	ward_and_allport	89	32.0	2.179	to_hand	poldrack-single-stim	s611	False
368.174	0.1	0.595	368.769	0	PA_with_intermediate	test	ward_and_allport	71	32.0	0.595	to_board	poldrack-single-stim	s611	False
368.78	0.1	0.45	369.23	0	PA_with_intermediate	test	ward_and_allport	82	32.0	0.45	to_hand	poldrack-single-stim	s611	False
369.231	0.1	0.502	369.733	0	PA_with_intermediate	test	ward_and_allport	89	32.0	0.502	to_board	poldrack-single-stim	s611	False
369.745	0.1	0.377	370.122	0	PA_with_intermediate	test	ward_and_allport	71	32.0	0.377	to_hand	poldrack-single-stim	s611	False
370.123	0.1	0.346	370.469	0	PA_with_intermediate	test	ward_and_allport	89	32.0	0.346	to_board	poldrack-single-stim	s611	False
370.48	1.0	2.0	370.479	0	PA_with_intermediate	test	ward_and_allport	-1	32.0	n/a	feedback	poldrack-single-stim	s611	False
372.493	2.982	2.982	375.475	1	PA_with_intermediate	test	ward_and_allport	89	33.0	2.982	to_hand	poldrack-single-stim	s611	False
375.477	0.1	0.45	375.927	0	PA_with_intermediate	test	ward_and_allport	82	33.0	0.45	to_board	poldrack-single-stim	s611	False
375.934	0.1	0.396	376.33	0	PA_with_intermediate	test	ward_and_allport	89	33.0	0.396	to_hand	poldrack-single-stim	s611	False
376.332	0.1	0.452	376.784	0	PA_with_intermediate	test	ward_and_allport	71	33.0	0.452	to_board	poldrack-single-stim	s611	False
376.793	0.1	0.661	377.454	0	PA_with_intermediate	test	ward_and_allport	82	33.0	0.661	to_hand	poldrack-single-stim	s611	False
377.455	0.1	0.452	377.907	0	PA_with_intermediate	test	ward_and_allport	71	33.0	0.452	to_board	poldrack-single-stim	s611	False
377.92	1.0	2.0	377.919	0	PA_with_intermediate	test	ward_and_allport	-1	33.0	n/a	feedback	poldrack-single-stim	s611	False
379.93	3.999	3.999	383.929	1	PA_with_intermediate	test	ward_and_allport	71	34.0	3.999	to_hand	poldrack-single-stim	s611	False
383.931	0.1	0.392	384.323	0	PA_with_intermediate	test	ward_and_allport	89	34.0	0.392	to_board	poldrack-single-stim	s611	False
384.33	0.1	0.341	384.671	0	PA_with_intermediate	test	ward_and_allport	71	34.0	0.341	to_hand	poldrack-single-stim	s611	False
384.672	0.1	0.402	385.074	0	PA_with_intermediate	test	ward_and_allport	82	34.0	0.402	to_board	poldrack-single-stim	s611	False
385.084	0.1	0.321	385.405	0	PA_with_intermediate	test	ward_and_allport	89	34.0	0.321	to_hand	poldrack-single-stim	s611	False
385.407	0.1	0.281	385.688	0	PA_with_intermediate	test	ward_and_allport	71	34.0	0.281	to_board	poldrack-single-stim	s611	False
385.705	1.0	2.408	385.704	0	PA_with_intermediate	test	ward_and_allport	-1	34.0	n/a	feedback	poldrack-single-stim	s611	False
388.121	2.51	2.51	390.631	1	PA_without_intermediate	test	ward_and_allport	89	35.0	2.51	to_hand	poldrack-single-stim	s611	False
390.632	0.1	0.404	391.036	0	PA_without_intermediate	test	ward_and_allport	71	35.0	0.404	to_board	poldrack-single-stim	s611	False
391.044	0.1	0.384	391.428	0	PA_without_intermediate	test	ward_and_allport	89	35.0	0.384	to_hand	poldrack-single-stim	s611	False
391.429	0.1	0.369	391.798	0	PA_without_intermediate	test	ward_and_allport	71	35.0	0.369	to_board	poldrack-single-stim	s611	False
391.809	0.1	0.377	392.186	0	PA_without_intermediate	test	ward_and_allport	89	35.0	0.377	to_hand	poldrack-single-stim	s611	False
392.187	0.1	0.545	392.732	0	PA_without_intermediate	test	ward_and_allport	82	35.0	0.545	to_board	poldrack-single-stim	s611	False
392.747	1.0	2.816	392.746	0	PA_without_intermediate	test	ward_and_allport	-1	35.0	n/a	feedback	poldrack-single-stim	s611	False
395.574	2.865	2.865	398.439	1	PA_with_intermediate	test	ward_and_allport	71	36.0	2.865	to_hand	poldrack-single-stim	s611	False
398.44	0.1	0.463	398.903	0	PA_with_intermediate	test	ward_and_allport	82	36.0	0.463	to_board	poldrack-single-stim	s611	False
398.911	0.1	0.419	399.33	0	PA_with_intermediate	test	ward_and_allport	71	36.0	0.419	to_hand	poldrack-single-stim	s611	False
399.331	0.1	0.382	399.713	0	PA_with_intermediate	test	ward_and_allport	89	36.0	0.382	to_board	poldrack-single-stim	s611	False
399.724	0.1	0.402	400.126	0	PA_with_intermediate	test	ward_and_allport	82	36.0	0.402	to_hand	poldrack-single-stim	s611	False
400.128	0.1	0.346	400.474	0	PA_with_intermediate	test	ward_and_allport	71	36.0	0.346	to_board	poldrack-single-stim	s611	False
400.486	1.0	4.176	400.485	0	PA_with_intermediate	test	ward_and_allport	-1	36.0	n/a	feedback	poldrack-single-stim	s611	False
404.672	2.635	2.635	407.307	1	PA_with_intermediate	test	ward_and_allport	89	37.0	2.635	to_hand	poldrack-single-stim	s611	False
407.31	0.1	0.36	407.67	0	PA_with_intermediate	test	ward_and_allport	71	37.0	0.36	to_board	poldrack-single-stim	s611	False
407.682	0.1	0.346	408.028	0	PA_with_intermediate	test	ward_and_allport	89	37.0	0.346	to_hand	poldrack-single-stim	s611	False
408.03	0.1	0.432	408.462	0	PA_with_intermediate	test	ward_and_allport	82	37.0	0.432	to_board	poldrack-single-stim	s611	False
408.474	0.1	0.275	408.749	0	PA_with_intermediate	test	ward_and_allport	71	37.0	0.275	to_hand	poldrack-single-stim	s611	False
408.751	0.1	0.302	409.053	0	PA_with_intermediate	test	ward_and_allport	89	37.0	0.302	to_board	poldrack-single-stim	s611	False
409.068	1.0	3.36	409.067	0	PA_with_intermediate	test	ward_and_allport	-1	37.0	n/a	feedback	poldrack-single-stim	s611	False
412.438	3.205	3.205	415.643	1	PA_with_intermediate	test	ward_and_allport	82	38.0	3.205	to_hand	poldrack-single-stim	s611	False
415.644	0.1	0.884	416.528	0	PA_with_intermediate	test	ward_and_allport	89	38.0	0.884	to_board	poldrack-single-stim	s611	False
416.537	0.1	0.558	417.095	0	PA_with_intermediate	test	ward_and_allport	82	38.0	0.558	to_hand	poldrack-single-stim	s611	False
417.096	0.1	0.422	417.518	0	PA_with_intermediate	test	ward_and_allport	71	38.0	0.422	to_board	poldrack-single-stim	s611	False
417.53	0.1	0.339	417.869	0	PA_with_intermediate	test	ward_and_allport	89	38.0	0.339	to_hand	poldrack-single-stim	s611	False
417.871	0.1	0.39	418.261	0	PA_with_intermediate	test	ward_and_allport	82	38.0	0.39	to_board	poldrack-single-stim	s611	False
418.273	1.0	2.0	418.272	0	PA_with_intermediate	test	ward_and_allport	-1	38.0	n/a	feedback	poldrack-single-stim	s611	False
420.285	3.495	3.495	423.78	1	PA_without_intermediate	test	ward_and_allport	82	39.0	3.495	to_hand	poldrack-single-stim	s611	False
423.781	0.1	0.8	424.581	0	PA_without_intermediate	test	ward_and_allport	89	39.0	0.8	to_board	poldrack-single-stim	s611	False
424.59	0.1	0.929	425.519	0	PA_without_intermediate	test	ward_and_allport	82	39.0	0.929	to_hand	poldrack-single-stim	s611	False
425.52	0.1	0.485	426.005	0	PA_without_intermediate	test	ward_and_allport	89	39.0	0.485	to_board	poldrack-single-stim	s611	False
426.015	0.1	0.411	426.426	0	PA_without_intermediate	test	ward_and_allport	82	39.0	0.411	to_hand	poldrack-single-stim	s611	False
426.427	0.1	0.33	426.757	0	PA_without_intermediate	test	ward_and_allport	71	39.0	0.33	to_board	poldrack-single-stim	s611	False
426.773	1.0	2.408	426.772	0	PA_without_intermediate	test	ward_and_allport	-1	39.0	n/a	feedback	poldrack-single-stim	s611	False
429.196	2.754	2.754	431.95	1	PA_with_intermediate	test	ward_and_allport	71	40.0	2.754	to_hand	poldrack-single-stim	s611	False
431.951	0.1	0.361	432.312	0	PA_with_intermediate	test	ward_and_allport	89	40.0	0.361	to_board	poldrack-single-stim	s611	False
432.324	0.1	0.993	433.317	0	PA_with_intermediate	test	ward_and_allport	71	40.0	0.993	to_hand	poldrack-single-stim	s611	False
433.319	0.1	0.479	433.798	0	PA_with_intermediate	test	ward_and_allport	82	40.0	0.479	to_board	poldrack-single-stim	s611	False
433.81	0.1	0.3	434.11	0	PA_with_intermediate	test	ward_and_allport	89	40.0	0.3	to_hand	poldrack-single-stim	s611	False
434.113	0.1	0.428	434.541	0	PA_with_intermediate	test	ward_and_allport	82	40.0	0.428	to_board	poldrack-single-stim	s611	False
434.551	1.0	2.816	434.55	0	PA_with_intermediate	test	ward_and_allport	-1	40.0	n/a	feedback	poldrack-single-stim	s611	False
437.377	2.109	2.109	439.486	1	PA_without_intermediate	test	ward_and_allport	82	41.0	2.109	to_hand	poldrack-single-stim	s611	False
439.487	0.1	0.399	439.886	0	PA_without_intermediate	test	ward_and_allport	89	41.0	0.399	to_board	poldrack-single-stim	s611	False
439.894	0.1	0.745	440.639	0	PA_without_intermediate	test	ward_and_allport	82	41.0	0.745	to_hand	poldrack-single-stim	s611	False
440.64	0.1	0.478	441.118	0	PA_without_intermediate	test	ward_and_allport	71	41.0	0.478	to_board	poldrack-single-stim	s611	False
441.128	0.1	0.645	441.773	0	PA_without_intermediate	test	ward_and_allport	82	41.0	0.645	to_hand	poldrack-single-stim	s611	False
441.774	0.1	0.346	442.12	0	PA_without_intermediate	test	ward_and_allport	89	41.0	0.346	to_board	poldrack-single-stim	s611	False
442.13	1.0	3.088	442.129	0	PA_without_intermediate	test	ward_and_allport	-1	41.0	n/a	feedback	poldrack-single-stim	s611	False
445.226	2.113	2.113	447.339	1	PA_without_intermediate	test	ward_and_allport	89	42.0	2.113	to_hand	poldrack-single-stim	s611	False
447.34	0.1	0.56	447.9	0	PA_without_intermediate	test	ward_and_allport	82	42.0	0.56	to_board	poldrack-single-stim	s611	False
447.913	0.1	0.883	448.796	0	PA_without_intermediate	test	ward_and_allport	89	42.0	0.883	to_hand	poldrack-single-stim	s611	False
448.797	0.1	0.466	449.263	0	PA_without_intermediate	test	ward_and_allport	71	42.0	0.466	to_board	poldrack-single-stim	s611	False
449.277	0.1	0.442	449.719	0	PA_without_intermediate	test	ward_and_allport	89	42.0	0.442	to_hand	poldrack-single-stim	s611	False
449.72	0.1	0.633	450.353	0	PA_without_intermediate	test	ward_and_allport	82	42.0	0.633	to_board	poldrack-single-stim	s611	False
450.368	1.0	2.136	450.367	0	PA_without_intermediate	test	ward_and_allport	-1	42.0	n/a	feedback	poldrack-single-stim	s611	False
452.513	1.346	1.346	453.859	1	PA_without_intermediate	test	ward_and_allport	89	43.0	1.346	to_hand	poldrack-single-stim	s611	False
453.86	0.1	0.515	454.375	0	PA_without_intermediate	test	ward_and_allport	82	43.0	0.515	to_board	poldrack-single-stim	s611	False
454.385	0.1	0.796	455.181	0	PA_without_intermediate	test	ward_and_allport	89	43.0	0.796	to_hand	poldrack-single-stim	s611	False
455.183	0.1	0.616	455.799	0	PA_without_intermediate	test	ward_and_allport	82	43.0	0.616	to_board	poldrack-single-stim	s611	False
455.809	0.1	0.441	456.25	0	PA_without_intermediate	test	ward_and_allport	89	43.0	0.441	to_hand	poldrack-single-stim	s611	False
456.252	0.1	0.368	456.62	0	PA_without_intermediate	test	ward_and_allport	71	43.0	0.368	to_board	poldrack-single-stim	s611	False
456.632	1.0	7.168	456.631	0	PA_without_intermediate	test	ward_and_allport	-1	43.0	n/a	feedback	poldrack-single-stim	s611	False
463.809	2.336	2.336	466.145	1	PA_without_intermediate	test	ward_and_allport	71	44.0	2.336	to_hand	poldrack-single-stim	s611	False
466.147	0.1	0.337	466.484	0	PA_without_intermediate	test	ward_and_allport	89	44.0	0.337	to_board	poldrack-single-stim	s611	False
466.492	0.1	0.348	466.84	0	PA_without_intermediate	test	ward_and_allport	71	44.0	0.348	to_hand	poldrack-single-stim	s611	False
466.842	0.1	0.534	467.376	0	PA_without_intermediate	test	ward_and_allport	82	44.0	0.534	to_board	poldrack-single-stim	s611	False
467.392	0.1	0.285	467.677	0	PA_without_intermediate	test	ward_and_allport	71	44.0	0.285	to_hand	poldrack-single-stim	s611	False
467.678	0.1	0.277	467.955	0	PA_without_intermediate	test	ward_and_allport	89	44.0	0.277	to_board	poldrack-single-stim	s611	False
467.97	1.0	2.816	467.969	0	PA_without_intermediate	test	ward_and_allport	-1	44.0	n/a	feedback	poldrack-single-stim	s611	False
475.804	3.103	3.103	478.907	1	PA_with_intermediate	test	ward_and_allport	71	45.0	3.103	to_hand	poldrack-single-stim	s611	False
478.908	0.1	0.478	479.386	0	PA_with_intermediate	test	ward_and_allport	82	45.0	0.478	to_board	poldrack-single-stim	s611	False
479.399	0.1	0.393	479.792	0	PA_with_intermediate	test	ward_and_allport	71	45.0	0.393	to_hand	poldrack-single-stim	s611	False
479.794	0.1	0.332	480.126	0	PA_with_intermediate	test	ward_and_allport	89	45.0	0.332	to_board	poldrack-single-stim	s611	False
480.141	0.1	0.313	480.454	0	PA_with_intermediate	test	ward_and_allport	82	45.0	0.313	to_hand	poldrack-single-stim	s611	False
480.455	0.1	0.248	480.703	0	PA_with_intermediate	test	ward_and_allport	89	45.0	0.248	to_board	poldrack-single-stim	s611	False
480.721	1.0	2.952	480.72	0	PA_with_intermediate	test	ward_and_allport	-1	45.0	n/a	feedback	poldrack-single-stim	s611	False
483.683	2.254	2.254	485.937	1	PA_with_intermediate	test	ward_and_allport	71	46.0	2.254	to_hand	poldrack-single-stim	s611	False
485.939	0.1	0.386	486.325	0	PA_with_intermediate	test	ward_and_allport	82	46.0	0.386	to_board	poldrack-single-stim	s611	False
486.335	0.1	0.318	486.653	0	PA_with_intermediate	test	ward_and_allport	71	46.0	0.318	to_hand	poldrack-single-stim	s611	False
486.654	0.1	0.3	486.954	0	PA_with_intermediate	test	ward_and_allport	89	46.0	0.3	to_board	poldrack-single-stim	s611	False
486.967	0.1	0.347	487.314	0	PA_with_intermediate	test	ward_and_allport	82	46.0	0.347	to_hand	poldrack-single-stim	s611	False
487.316	0.1	0.303	487.619	0	PA_with_intermediate	test	ward_and_allport	89	46.0	0.303	to_board	poldrack-single-stim	s611	False
487.634	1.0	2.136	487.633	0	PA_with_intermediate	test	ward_and_allport	-1	46.0	n/a	feedback	poldrack-single-stim	s611	False
489.783	2.213	2.213	491.996	1	PA_without_intermediate	test	ward_and_allport	71	47.0	2.213	to_hand	poldrack-single-stim	s611	False
491.998	0.1	0.286	492.284	0	PA_without_intermediate	test	ward_and_allport	89	47.0	0.286	to_board	poldrack-single-stim	s611	False
492.296	0.1	0.35	492.646	0	PA_without_intermediate	test	ward_and_allport	71	47.0	0.35	to_hand	poldrack-single-stim	s611	False
492.648	0.1	0.336	492.984	0	PA_without_intermediate	test	ward_and_allport	89	47.0	0.336	to_board	poldrack-single-stim	s611	False
492.999	0.1	0.346	493.345	0	PA_without_intermediate	test	ward_and_allport	71	47.0	0.346	to_hand	poldrack-single-stim	s611	False
493.346	0.1	0.342	493.688	0	PA_without_intermediate	test	ward_and_allport	82	47.0	0.342	to_board	poldrack-single-stim	s611	False
493.703	1.0	2.68	493.702	0	PA_without_intermediate	test	ward_and_allport	-1	47.0	n/a	feedback	poldrack-single-stim	s611	False
