onset	duration	block_duration	movement_onset	planning	condition	exp_stage	experiment_exp_id	key_press	problem_id	response_time	trial_id	trial_type	worker_id	junk
3.015	6.283	6.283	9.298	1	UA_with_intermediate	practice	ward_and_allport	71	0.0	6.283	to_hand	poldrack-single-stim	s640	False
9.3	0.1	1.149	10.449	0	UA_with_intermediate	practice	ward_and_allport	82	0.0	1.149	to_board	poldrack-single-stim	s640	False
10.451	0.1	0.922	11.373	0	UA_with_intermediate	practice	ward_and_allport	71	0.0	0.922	to_hand	poldrack-single-stim	s640	False
11.375	0.1	0.506	11.881	0	UA_with_intermediate	practice	ward_and_allport	89	0.0	0.506	to_board	poldrack-single-stim	s640	False
11.884	0.1	0.903	12.787	0	UA_with_intermediate	practice	ward_and_allport	82	0.0	0.903	to_hand	poldrack-single-stim	s640	False
12.789	0.1	0.321	13.11	0	UA_with_intermediate	practice	ward_and_allport	89	0.0	0.321	to_board	poldrack-single-stim	s640	False
13.12	1.0	2.5	13.119	0	UA_with_intermediate	practice	ward_and_allport	-1	0.0	n/a	feedback	poldrack-single-stim	s640	False
15.622	4.145	4.145	19.767	1	UA_with_intermediate	practice	ward_and_allport	89	1.0	4.145	to_hand	poldrack-single-stim	s640	False
19.769	0.1	1.187	20.956	0	UA_with_intermediate	practice	ward_and_allport	82	1.0	1.187	to_board	poldrack-single-stim	s640	False
20.957	0.1	0.766	21.723	0	UA_with_intermediate	practice	ward_and_allport	71	1.0	0.766	to_hand	poldrack-single-stim	s640	False
21.726	0.1	0.827	22.553	0	UA_with_intermediate	practice	ward_and_allport	89	1.0	0.827	to_board	poldrack-single-stim	s640	False
22.554	0.1	0.386	22.94	0	UA_with_intermediate	practice	ward_and_allport	82	1.0	0.386	to_hand	poldrack-single-stim	s640	False
22.941	0.1	0.301	23.242	0	UA_with_intermediate	practice	ward_and_allport	89	1.0	0.301	to_board	poldrack-single-stim	s640	False
23.249	1.0	2.1	23.248	0	UA_with_intermediate	practice	ward_and_allport	-1	1.0	n/a	feedback	poldrack-single-stim	s640	False
25.351	2.995	2.995	28.346	1	UA_without_intermediate	practice	ward_and_allport	71	2.0	2.995	to_hand	poldrack-single-stim	s640	False
28.347	0.1	0.705	29.052	0	UA_without_intermediate	practice	ward_and_allport	82	2.0	0.705	to_board	poldrack-single-stim	s640	False
29.053	0.1	0.479	29.532	0	UA_without_intermediate	practice	ward_and_allport	71	2.0	0.479	to_hand	poldrack-single-stim	s640	False
29.534	0.1	0.321	29.855	0	UA_without_intermediate	practice	ward_and_allport	82	2.0	0.321	to_board	poldrack-single-stim	s640	False
29.857	0.1	3.067	32.924	0	UA_without_intermediate	practice	ward_and_allport	82	2.0	3.067	to_hand	poldrack-single-stim	s640	False
32.925	0.1	1.587	34.512	0	UA_without_intermediate	practice	ward_and_allport	71	2.0	1.587	to_board	poldrack-single-stim	s640	False
34.515	0.1	0.705	35.22	0	UA_without_intermediate	practice	ward_and_allport	82	2.0	0.705	to_hand	poldrack-single-stim	s640	False
35.222	0.1	0.398	35.62	0	UA_without_intermediate	practice	ward_and_allport	71	2.0	0.398	to_board	poldrack-single-stim	s640	False
35.624	0.1	0.835	36.459	0	UA_without_intermediate	practice	ward_and_allport	82	2.0	0.835	to_hand	poldrack-single-stim	s640	False
36.46	0.1	0.961	37.421	0	UA_without_intermediate	practice	ward_and_allport	89	2.0	0.961	to_board	poldrack-single-stim	s640	False
37.424	0.1	0.956	38.38	0	UA_without_intermediate	practice	ward_and_allport	71	2.0	0.956	to_hand	poldrack-single-stim	s640	False
38.381	0.1	0.627	39.008	0	UA_without_intermediate	practice	ward_and_allport	89	2.0	0.627	to_board	poldrack-single-stim	s640	False
39.011	0.1	1.477	40.488	0	UA_without_intermediate	practice	ward_and_allport	71	2.0	1.477	to_hand	poldrack-single-stim	s640	False
40.488	0.1	0.553	41.041	0	UA_without_intermediate	practice	ward_and_allport	89	2.0	0.553	to_board	poldrack-single-stim	s640	False
41.048	1.0	2.2	41.047	0	UA_without_intermediate	practice	ward_and_allport	-1	2.0	n/a	feedback	poldrack-single-stim	s640	False
43.251	2.357	2.357	45.608	1	UA_without_intermediate	practice	ward_and_allport	71	3.0	2.357	to_hand	poldrack-single-stim	s640	False
45.609	0.1	0.726	46.335	0	UA_without_intermediate	practice	ward_and_allport	89	3.0	0.726	to_board	poldrack-single-stim	s640	False
46.338	0.1	1.012	47.35	0	UA_without_intermediate	practice	ward_and_allport	82	3.0	1.012	to_hand	poldrack-single-stim	s640	False
47.351	0.1	0.659	48.01	0	UA_without_intermediate	practice	ward_and_allport	89	3.0	0.659	to_board	poldrack-single-stim	s640	False
48.013	0.1	0.531	48.544	0	UA_without_intermediate	practice	ward_and_allport	71	3.0	0.531	to_hand	poldrack-single-stim	s640	False
48.545	0.1	0.299	48.844	0	UA_without_intermediate	practice	ward_and_allport	89	3.0	0.299	to_board	poldrack-single-stim	s640	False
48.852	1.0	2.0	48.851	0	UA_without_intermediate	practice	ward_and_allport	-1	3.0	n/a	feedback	poldrack-single-stim	s640	False
52.862	7.004	7.004	59.866	1	PA_with_intermediate	test	ward_and_allport	82	0.0	7.004	to_hand	poldrack-single-stim	s640	False
59.867	0.1	1.296	61.163	0	PA_with_intermediate	test	ward_and_allport	89	0.0	1.296	to_board	poldrack-single-stim	s640	False
61.166	0.1	2.135	63.301	0	PA_with_intermediate	test	ward_and_allport	82	0.0	2.135	to_hand	poldrack-single-stim	s640	False
63.303	0.1	0.608	63.911	0	PA_with_intermediate	test	ward_and_allport	71	0.0	0.608	to_board	poldrack-single-stim	s640	False
63.914	0.1	0.626	64.54	0	PA_with_intermediate	test	ward_and_allport	89	0.0	0.626	to_hand	poldrack-single-stim	s640	False
64.541	0.1	0.637	65.178	0	PA_with_intermediate	test	ward_and_allport	71	0.0	0.637	to_board	poldrack-single-stim	s640	False
65.185	1.0	3.768	65.184	0	PA_with_intermediate	test	ward_and_allport	-1	0.0	n/a	feedback	poldrack-single-stim	s640	False
68.956	4.218	4.218	73.174	1	PA_with_intermediate	test	ward_and_allport	89	1.0	4.218	to_hand	poldrack-single-stim	s640	False
73.176	0.1	0.436	73.612	0	PA_with_intermediate	test	ward_and_allport	82	1.0	0.436	to_board	poldrack-single-stim	s640	False
73.615	0.1	0.969	74.584	0	PA_with_intermediate	test	ward_and_allport	89	1.0	0.969	to_hand	poldrack-single-stim	s640	False
74.586	0.1	0.599	75.185	0	PA_with_intermediate	test	ward_and_allport	71	1.0	0.599	to_board	poldrack-single-stim	s640	False
75.188	0.1	1.155	76.343	0	PA_with_intermediate	test	ward_and_allport	82	1.0	1.155	to_hand	poldrack-single-stim	s640	False
76.345	0.1	0.289	76.634	0	PA_with_intermediate	test	ward_and_allport	71	1.0	0.289	to_board	poldrack-single-stim	s640	False
76.642	1.0	2.68	76.641	0	PA_with_intermediate	test	ward_and_allport	-1	1.0	n/a	feedback	poldrack-single-stim	s640	False
79.325	5.355	5.355	84.68	1	PA_without_intermediate	test	ward_and_allport	89	2.0	5.355	to_hand	poldrack-single-stim	s640	False
84.682	0.1	0.891	85.573	0	PA_without_intermediate	test	ward_and_allport	71	2.0	0.891	to_board	poldrack-single-stim	s640	False
85.576	0.1	1.519	87.095	0	PA_without_intermediate	test	ward_and_allport	89	2.0	1.519	to_hand	poldrack-single-stim	s640	False
87.095	0.1	0.356	87.451	0	PA_without_intermediate	test	ward_and_allport	71	2.0	0.356	to_board	poldrack-single-stim	s640	False
87.455	0.1	0.631	88.086	0	PA_without_intermediate	test	ward_and_allport	89	2.0	0.631	to_hand	poldrack-single-stim	s640	False
88.087	0.1	0.25	88.337	0	PA_without_intermediate	test	ward_and_allport	82	2.0	0.25	to_board	poldrack-single-stim	s640	False
88.345	1.0	3.224	88.344	0	PA_without_intermediate	test	ward_and_allport	-1	2.0	n/a	feedback	poldrack-single-stim	s640	False
91.573	3.647	3.647	95.22	1	PA_without_intermediate	test	ward_and_allport	82	3.0	3.647	to_hand	poldrack-single-stim	s640	False
95.222	0.1	0.504	95.726	0	PA_without_intermediate	test	ward_and_allport	89	3.0	0.504	to_board	poldrack-single-stim	s640	False
95.729	0.1	0.415	96.144	0	PA_without_intermediate	test	ward_and_allport	82	3.0	0.415	to_hand	poldrack-single-stim	s640	False
96.146	0.1	0.32	96.466	0	PA_without_intermediate	test	ward_and_allport	89	3.0	0.32	to_board	poldrack-single-stim	s640	False
96.469	0.1	0.861	97.33	0	PA_without_intermediate	test	ward_and_allport	82	3.0	0.861	to_hand	poldrack-single-stim	s640	False
97.332	0.1	0.368	97.7	0	PA_without_intermediate	test	ward_and_allport	71	3.0	0.368	to_board	poldrack-single-stim	s640	False
97.705	1.0	3.36	97.704	0	PA_without_intermediate	test	ward_and_allport	-1	3.0	n/a	feedback	poldrack-single-stim	s640	False
101.069	4.064	4.064	105.133	1	PA_without_intermediate	test	ward_and_allport	89	4.0	4.064	to_hand	poldrack-single-stim	s640	False
105.134	0.1	0.757	105.891	0	PA_without_intermediate	test	ward_and_allport	82	4.0	0.757	to_board	poldrack-single-stim	s640	False
105.895	0.1	1.3	107.195	0	PA_without_intermediate	test	ward_and_allport	89	4.0	1.3	to_hand	poldrack-single-stim	s640	False
107.196	0.1	0.325	107.521	0	PA_without_intermediate	test	ward_and_allport	71	4.0	0.325	to_board	poldrack-single-stim	s640	False
107.524	0.1	0.501	108.025	0	PA_without_intermediate	test	ward_and_allport	89	4.0	0.501	to_hand	poldrack-single-stim	s640	False
108.026	0.1	0.314	108.34	0	PA_without_intermediate	test	ward_and_allport	82	4.0	0.314	to_board	poldrack-single-stim	s640	False
108.346	1.0	2.0	108.345	0	PA_without_intermediate	test	ward_and_allport	-1	4.0	n/a	feedback	poldrack-single-stim	s640	False
110.351	4.972	4.972	115.323	1	PA_without_intermediate	test	ward_and_allport	71	5.0	4.972	to_hand	poldrack-single-stim	s640	False
115.324	0.1	0.396	115.72	0	PA_without_intermediate	test	ward_and_allport	89	5.0	0.396	to_board	poldrack-single-stim	s640	False
115.724	0.1	1.316	117.04	0	PA_without_intermediate	test	ward_and_allport	71	5.0	1.316	to_hand	poldrack-single-stim	s640	False
117.042	0.1	0.495	117.537	0	PA_without_intermediate	test	ward_and_allport	89	5.0	0.495	to_board	poldrack-single-stim	s640	False
117.541	0.1	0.683	118.224	0	PA_without_intermediate	test	ward_and_allport	71	5.0	0.683	to_hand	poldrack-single-stim	s640	False
118.226	0.1	0.189	118.415	0	PA_without_intermediate	test	ward_and_allport	82	5.0	0.189	to_board	poldrack-single-stim	s640	False
118.421	1.0	2.408	118.42	0	PA_without_intermediate	test	ward_and_allport	-1	5.0	n/a	feedback	poldrack-single-stim	s640	False
120.834	5.139	5.139	125.973	1	PA_with_intermediate	test	ward_and_allport	82	6.0	5.139	to_hand	poldrack-single-stim	s640	False
125.975	0.1	0.96	126.935	0	PA_with_intermediate	test	ward_and_allport	89	6.0	0.96	to_board	poldrack-single-stim	s640	False
126.938	0.1	1.055	127.993	0	PA_with_intermediate	test	ward_and_allport	82	6.0	1.055	to_hand	poldrack-single-stim	s640	False
127.994	0.1	0.389	128.383	0	PA_with_intermediate	test	ward_and_allport	71	6.0	0.389	to_board	poldrack-single-stim	s640	False
128.388	0.1	0.375	128.763	0	PA_with_intermediate	test	ward_and_allport	89	6.0	0.375	to_hand	poldrack-single-stim	s640	False
128.763	0.1	0.242	129.005	0	PA_with_intermediate	test	ward_and_allport	82	6.0	0.242	to_board	poldrack-single-stim	s640	False
129.013	1.0	2.136	129.012	0	PA_with_intermediate	test	ward_and_allport	-1	6.0	n/a	feedback	poldrack-single-stim	s640	False
131.153	4.677	4.677	135.83	1	PA_without_intermediate	test	ward_and_allport	82	7.0	4.677	to_hand	poldrack-single-stim	s640	False
135.831	0.1	0.292	136.123	0	PA_without_intermediate	test	ward_and_allport	89	7.0	0.292	to_board	poldrack-single-stim	s640	False
136.128	0.1	2.035	138.163	0	PA_without_intermediate	test	ward_and_allport	82	7.0	2.035	to_hand	poldrack-single-stim	s640	False
138.164	0.1	0.824	138.988	0	PA_without_intermediate	test	ward_and_allport	71	7.0	0.824	to_board	poldrack-single-stim	s640	False
138.992	0.1	1.065	140.057	0	PA_without_intermediate	test	ward_and_allport	82	7.0	1.065	to_hand	poldrack-single-stim	s640	False
140.059	0.1	0.379	140.438	0	PA_without_intermediate	test	ward_and_allport	89	7.0	0.379	to_board	poldrack-single-stim	s640	False
140.446	1.0	5.128	140.445	0	PA_without_intermediate	test	ward_and_allport	-1	7.0	n/a	feedback	poldrack-single-stim	s640	False
145.579	3.872	3.872	149.451	1	PA_without_intermediate	test	ward_and_allport	71	8.0	3.872	to_hand	poldrack-single-stim	s640	False
149.452	0.1	1.111	150.563	0	PA_without_intermediate	test	ward_and_allport	82	8.0	1.111	to_board	poldrack-single-stim	s640	False
150.567	0.1	0.495	151.062	0	PA_without_intermediate	test	ward_and_allport	71	8.0	0.495	to_hand	poldrack-single-stim	s640	False
151.062	0.1	0.329	151.391	0	PA_without_intermediate	test	ward_and_allport	82	8.0	0.329	to_board	poldrack-single-stim	s640	False
151.396	0.1	0.615	152.011	0	PA_without_intermediate	test	ward_and_allport	71	8.0	0.615	to_hand	poldrack-single-stim	s640	False
152.013	0.1	0.203	152.216	0	PA_without_intermediate	test	ward_and_allport	89	8.0	0.203	to_board	poldrack-single-stim	s640	False
152.224	1.0	2.136	152.223	0	PA_without_intermediate	test	ward_and_allport	-1	8.0	n/a	feedback	poldrack-single-stim	s640	False
154.366	4.68	4.68	159.046	1	PA_without_intermediate	test	ward_and_allport	71	9.0	4.68	to_hand	poldrack-single-stim	s640	False
159.047	0.1	0.416	159.463	0	PA_without_intermediate	test	ward_and_allport	89	9.0	0.416	to_board	poldrack-single-stim	s640	False
159.468	0.1	0.551	160.019	0	PA_without_intermediate	test	ward_and_allport	71	9.0	0.551	to_hand	poldrack-single-stim	s640	False
160.021	0.1	0.322	160.343	0	PA_without_intermediate	test	ward_and_allport	82	9.0	0.322	to_board	poldrack-single-stim	s640	False
160.347	0.1	0.336	160.683	0	PA_without_intermediate	test	ward_and_allport	71	9.0	0.336	to_hand	poldrack-single-stim	s640	False
160.684	0.1	0.244	160.928	0	PA_without_intermediate	test	ward_and_allport	89	9.0	0.244	to_board	poldrack-single-stim	s640	False
160.938	1.0	5.264	160.937	0	PA_without_intermediate	test	ward_and_allport	-1	9.0	n/a	feedback	poldrack-single-stim	s640	False
166.206	3.715	3.715	169.921	1	PA_with_intermediate	test	ward_and_allport	89	10.0	3.715	to_hand	poldrack-single-stim	s640	False
169.922	0.1	0.774	170.696	0	PA_with_intermediate	test	ward_and_allport	82	10.0	0.774	to_board	poldrack-single-stim	s640	False
170.702	0.1	1.361	172.063	0	PA_with_intermediate	test	ward_and_allport	89	10.0	1.361	to_hand	poldrack-single-stim	s640	False
172.064	0.1	0.423	172.487	0	PA_with_intermediate	test	ward_and_allport	71	10.0	0.423	to_board	poldrack-single-stim	s640	False
172.491	0.1	0.606	173.097	0	PA_with_intermediate	test	ward_and_allport	82	10.0	0.606	to_hand	poldrack-single-stim	s640	False
173.097	0.1	0.26	173.357	0	PA_with_intermediate	test	ward_and_allport	89	10.0	0.26	to_board	poldrack-single-stim	s640	False
173.368	1.0	4.04	173.367	0	PA_with_intermediate	test	ward_and_allport	-1	10.0	n/a	feedback	poldrack-single-stim	s640	False
177.415	1.854	1.854	179.269	1	PA_with_intermediate	test	ward_and_allport	82	11.0	1.854	to_hand	poldrack-single-stim	s640	False
179.27	0.1	0.319	179.589	0	PA_with_intermediate	test	ward_and_allport	89	11.0	0.319	to_board	poldrack-single-stim	s640	False
179.594	0.1	2.676	182.27	0	PA_with_intermediate	test	ward_and_allport	89	11.0	2.676	to_hand	poldrack-single-stim	s640	False
182.271	0.1	0.922	183.193	0	PA_with_intermediate	test	ward_and_allport	71	11.0	0.922	to_board	poldrack-single-stim	s640	False
183.198	0.1	1.272	184.47	0	PA_with_intermediate	test	ward_and_allport	82	11.0	1.272	to_hand	poldrack-single-stim	s640	False
184.472	0.1	0.742	185.214	0	PA_with_intermediate	test	ward_and_allport	89	11.0	0.742	to_board	poldrack-single-stim	s640	False
185.22	0.1	0.678	185.898	0	PA_with_intermediate	test	ward_and_allport	71	11.0	0.678	to_hand	poldrack-single-stim	s640	False
185.899	0.1	0.383	186.282	0	PA_with_intermediate	test	ward_and_allport	89	11.0	0.383	to_board	poldrack-single-stim	s640	False
186.289	1.0	2.136	186.288	0	PA_with_intermediate	test	ward_and_allport	-1	11.0	n/a	feedback	poldrack-single-stim	s640	False
188.43	4.093	4.093	192.523	1	PA_with_intermediate	test	ward_and_allport	71	12.0	4.093	to_hand	poldrack-single-stim	s640	False
192.524	0.1	0.478	193.002	0	PA_with_intermediate	test	ward_and_allport	82	12.0	0.478	to_board	poldrack-single-stim	s640	False
193.008	0.1	1.111	194.119	0	PA_with_intermediate	test	ward_and_allport	71	12.0	1.111	to_hand	poldrack-single-stim	s640	False
194.12	0.1	0.331	194.451	0	PA_with_intermediate	test	ward_and_allport	89	12.0	0.331	to_board	poldrack-single-stim	s640	False
194.456	0.1	1.324	195.78	0	PA_with_intermediate	test	ward_and_allport	82	12.0	1.324	to_hand	poldrack-single-stim	s640	False
195.782	0.1	0.506	196.288	0	PA_with_intermediate	test	ward_and_allport	71	12.0	0.506	to_board	poldrack-single-stim	s640	False
196.297	1.0	2.408	196.296	0	PA_with_intermediate	test	ward_and_allport	-1	12.0	n/a	feedback	poldrack-single-stim	s640	False
198.71	4.356	4.356	203.066	1	PA_without_intermediate	test	ward_and_allport	71	13.0	4.356	to_hand	poldrack-single-stim	s640	False
203.067	0.1	0.398	203.465	0	PA_without_intermediate	test	ward_and_allport	89	13.0	0.398	to_board	poldrack-single-stim	s640	False
203.47	0.1	1.181	204.651	0	PA_without_intermediate	test	ward_and_allport	71	13.0	1.181	to_hand	poldrack-single-stim	s640	False
204.652	0.1	0.314	204.966	0	PA_without_intermediate	test	ward_and_allport	89	13.0	0.314	to_board	poldrack-single-stim	s640	False
204.971	0.1	1.475	206.446	0	PA_without_intermediate	test	ward_and_allport	71	13.0	1.475	to_hand	poldrack-single-stim	s640	False
206.447	0.1	0.229	206.676	0	PA_without_intermediate	test	ward_and_allport	82	13.0	0.229	to_board	poldrack-single-stim	s640	False
206.682	1.0	2.68	206.681	0	PA_without_intermediate	test	ward_and_allport	-1	13.0	n/a	feedback	poldrack-single-stim	s640	False
209.37	2.987	2.987	212.357	1	PA_with_intermediate	test	ward_and_allport	82	14.0	2.987	to_hand	poldrack-single-stim	s640	False
212.358	0.1	0.26	212.618	0	PA_with_intermediate	test	ward_and_allport	89	14.0	0.26	to_board	poldrack-single-stim	s640	False
212.623	0.1	1.417	214.04	0	PA_with_intermediate	test	ward_and_allport	82	14.0	1.417	to_hand	poldrack-single-stim	s640	False
214.041	0.1	0.343	214.384	0	PA_with_intermediate	test	ward_and_allport	71	14.0	0.343	to_board	poldrack-single-stim	s640	False
214.389	0.1	1.208	215.597	0	PA_with_intermediate	test	ward_and_allport	89	14.0	1.208	to_hand	poldrack-single-stim	s640	False
215.599	0.1	0.254	215.853	0	PA_with_intermediate	test	ward_and_allport	82	14.0	0.254	to_board	poldrack-single-stim	s640	False
215.86	1.0	4.72	215.859	0	PA_with_intermediate	test	ward_and_allport	-1	14.0	n/a	feedback	poldrack-single-stim	s640	False
225.591	5.485	5.485	231.076	1	PA_without_intermediate	test	ward_and_allport	71	15.0	5.485	to_hand	poldrack-single-stim	s640	False
231.077	0.1	0.373	231.45	0	PA_without_intermediate	test	ward_and_allport	89	15.0	0.373	to_board	poldrack-single-stim	s640	False
231.454	0.1	0.805	232.259	0	PA_without_intermediate	test	ward_and_allport	71	15.0	0.805	to_hand	poldrack-single-stim	s640	False
232.261	0.1	0.358	232.619	0	PA_without_intermediate	test	ward_and_allport	82	15.0	0.358	to_board	poldrack-single-stim	s640	False
232.625	0.1	0.357	232.982	0	PA_without_intermediate	test	ward_and_allport	71	15.0	0.357	to_hand	poldrack-single-stim	s640	False
232.983	0.1	0.225	233.208	0	PA_without_intermediate	test	ward_and_allport	89	15.0	0.225	to_board	poldrack-single-stim	s640	False
233.214	1.0	3.224	233.213	0	PA_without_intermediate	test	ward_and_allport	-1	15.0	n/a	feedback	poldrack-single-stim	s640	False
236.443	4.32	4.32	240.763	1	PA_without_intermediate	test	ward_and_allport	89	16.0	4.32	to_hand	poldrack-single-stim	s640	False
240.764	0.1	0.267	241.031	0	PA_without_intermediate	test	ward_and_allport	71	16.0	0.267	to_board	poldrack-single-stim	s640	False
241.035	0.1	0.656	241.691	0	PA_without_intermediate	test	ward_and_allport	89	16.0	0.656	to_hand	poldrack-single-stim	s640	False
241.693	0.1	0.305	241.998	0	PA_without_intermediate	test	ward_and_allport	71	16.0	0.305	to_board	poldrack-single-stim	s640	False
242.004	0.1	0.293	242.297	0	PA_without_intermediate	test	ward_and_allport	89	16.0	0.293	to_hand	poldrack-single-stim	s640	False
242.297	0.1	0.305	242.602	0	PA_without_intermediate	test	ward_and_allport	82	16.0	0.305	to_board	poldrack-single-stim	s640	False
242.611	1.0	2.272	242.61	0	PA_without_intermediate	test	ward_and_allport	-1	16.0	n/a	feedback	poldrack-single-stim	s640	False
244.89	2.839	2.839	247.729	1	PA_with_intermediate	test	ward_and_allport	71	17.0	2.839	to_hand	poldrack-single-stim	s640	False
247.73	0.1	0.346	248.076	0	PA_with_intermediate	test	ward_and_allport	82	17.0	0.346	to_board	poldrack-single-stim	s640	False
248.082	0.1	0.289	248.371	0	PA_with_intermediate	test	ward_and_allport	71	17.0	0.289	to_hand	poldrack-single-stim	s640	False
248.372	0.1	0.309	248.681	0	PA_with_intermediate	test	ward_and_allport	89	17.0	0.309	to_board	poldrack-single-stim	s640	False
248.686	0.1	0.373	249.059	0	PA_with_intermediate	test	ward_and_allport	82	17.0	0.373	to_hand	poldrack-single-stim	s640	False
249.061	0.1	0.289	249.35	0	PA_with_intermediate	test	ward_and_allport	89	17.0	0.289	to_board	poldrack-single-stim	s640	False
249.357	1.0	3.632	249.356	0	PA_with_intermediate	test	ward_and_allport	-1	17.0	n/a	feedback	poldrack-single-stim	s640	False
252.995	3.435	3.435	256.43	1	PA_without_intermediate	test	ward_and_allport	82	18.0	3.435	to_hand	poldrack-single-stim	s640	False
256.432	0.1	0.686	257.118	0	PA_without_intermediate	test	ward_and_allport	89	18.0	0.686	to_board	poldrack-single-stim	s640	False
257.122	0.1	1.394	258.516	0	PA_without_intermediate	test	ward_and_allport	82	18.0	1.394	to_hand	poldrack-single-stim	s640	False
258.518	0.1	0.301	258.819	0	PA_without_intermediate	test	ward_and_allport	71	18.0	0.301	to_board	poldrack-single-stim	s640	False
258.826	0.1	0.506	259.332	0	PA_without_intermediate	test	ward_and_allport	82	18.0	0.506	to_hand	poldrack-single-stim	s640	False
259.333	0.1	0.18	259.513	0	PA_without_intermediate	test	ward_and_allport	89	18.0	0.18	to_board	poldrack-single-stim	s640	False
259.522	1.0	2.408	259.521	0	PA_without_intermediate	test	ward_and_allport	-1	18.0	n/a	feedback	poldrack-single-stim	s640	False
261.937	3.916	3.916	265.853	1	PA_without_intermediate	test	ward_and_allport	89	19.0	3.916	to_hand	poldrack-single-stim	s640	False
265.855	0.1	0.395	266.25	0	PA_without_intermediate	test	ward_and_allport	82	19.0	0.395	to_board	poldrack-single-stim	s640	False
266.256	0.1	0.38	266.636	0	PA_without_intermediate	test	ward_and_allport	89	19.0	0.38	to_hand	poldrack-single-stim	s640	False
266.637	0.1	0.341	266.978	0	PA_without_intermediate	test	ward_and_allport	82	19.0	0.341	to_board	poldrack-single-stim	s640	False
266.983	0.1	0.915	267.898	0	PA_without_intermediate	test	ward_and_allport	89	19.0	0.915	to_hand	poldrack-single-stim	s640	False
267.9	0.1	0.294	268.194	0	PA_without_intermediate	test	ward_and_allport	71	19.0	0.294	to_board	poldrack-single-stim	s640	False
268.202	1.0	2.0	268.201	0	PA_without_intermediate	test	ward_and_allport	-1	19.0	n/a	feedback	poldrack-single-stim	s640	False
270.207	3.799	3.799	274.006	1	PA_with_intermediate	test	ward_and_allport	82	20.0	3.799	to_hand	poldrack-single-stim	s640	False
274.008	0.1	0.232	274.24	0	PA_with_intermediate	test	ward_and_allport	71	20.0	0.232	to_board	poldrack-single-stim	s640	False
274.247	0.1	0.637	274.884	0	PA_with_intermediate	test	ward_and_allport	82	20.0	0.637	to_hand	poldrack-single-stim	s640	False
274.886	0.1	0.492	275.378	0	PA_with_intermediate	test	ward_and_allport	89	20.0	0.492	to_board	poldrack-single-stim	s640	False
275.385	0.1	0.817	276.202	0	PA_with_intermediate	test	ward_and_allport	71	20.0	0.817	to_hand	poldrack-single-stim	s640	False
276.204	0.1	0.302	276.506	0	PA_with_intermediate	test	ward_and_allport	89	20.0	0.302	to_board	poldrack-single-stim	s640	False
276.518	1.0	2.0	276.517	0	PA_with_intermediate	test	ward_and_allport	-1	20.0	n/a	feedback	poldrack-single-stim	s640	False
278.525	6.45	6.45	284.975	1	PA_with_intermediate	test	ward_and_allport	89	21.0	6.45	to_hand	poldrack-single-stim	s640	False
284.976	0.1	0.253	285.229	0	PA_with_intermediate	test	ward_and_allport	71	21.0	0.253	to_board	poldrack-single-stim	s640	False
285.236	0.1	0.366	285.602	0	PA_with_intermediate	test	ward_and_allport	89	21.0	0.366	to_hand	poldrack-single-stim	s640	False
285.604	0.1	0.331	285.935	0	PA_with_intermediate	test	ward_and_allport	82	21.0	0.331	to_board	poldrack-single-stim	s640	False
285.942	0.1	0.502	286.444	0	PA_with_intermediate	test	ward_and_allport	71	21.0	0.502	to_hand	poldrack-single-stim	s640	False
286.445	0.1	0.227	286.672	0	PA_with_intermediate	test	ward_and_allport	82	21.0	0.227	to_board	poldrack-single-stim	s640	False
286.682	1.0	2.0	286.681	0	PA_with_intermediate	test	ward_and_allport	-1	21.0	n/a	feedback	poldrack-single-stim	s640	False
288.69	4.324	4.324	293.014	1	PA_with_intermediate	test	ward_and_allport	71	22.0	4.324	to_hand	poldrack-single-stim	s640	False
293.015	0.1	0.454	293.469	0	PA_with_intermediate	test	ward_and_allport	82	22.0	0.454	to_board	poldrack-single-stim	s640	False
293.476	0.1	0.357	293.833	0	PA_with_intermediate	test	ward_and_allport	71	22.0	0.357	to_hand	poldrack-single-stim	s640	False
293.835	0.1	0.508	294.343	0	PA_with_intermediate	test	ward_and_allport	89	22.0	0.508	to_board	poldrack-single-stim	s640	False
294.35	0.1	0.302	294.652	0	PA_with_intermediate	test	ward_and_allport	82	22.0	0.302	to_hand	poldrack-single-stim	s640	False
294.654	0.1	0.258	294.912	0	PA_with_intermediate	test	ward_and_allport	89	22.0	0.258	to_board	poldrack-single-stim	s640	False
294.919	0.1	2.741	297.66	0	PA_with_intermediate	test	ward_and_allport	89	22.0	2.741	to_hand	poldrack-single-stim	s640	False
297.662	0.1	1.069	298.731	0	PA_with_intermediate	test	ward_and_allport	71	22.0	1.069	to_board	poldrack-single-stim	s640	False
298.742	1.0	2.408	298.741	0	PA_with_intermediate	test	ward_and_allport	-1	22.0	n/a	feedback	poldrack-single-stim	s640	False
301.157	5.507	5.507	306.664	1	PA_without_intermediate	test	ward_and_allport	89	23.0	5.507	to_hand	poldrack-single-stim	s640	False
306.666	0.1	0.318	306.984	0	PA_without_intermediate	test	ward_and_allport	82	23.0	0.318	to_board	poldrack-single-stim	s640	False
306.99	0.1	0.946	307.936	0	PA_without_intermediate	test	ward_and_allport	89	23.0	0.946	to_hand	poldrack-single-stim	s640	False
307.937	0.1	0.236	308.173	0	PA_without_intermediate	test	ward_and_allport	82	23.0	0.236	to_board	poldrack-single-stim	s640	False
308.18	0.1	1.16	309.34	0	PA_without_intermediate	test	ward_and_allport	89	23.0	1.16	to_hand	poldrack-single-stim	s640	False
309.34	0.1	0.187	309.527	0	PA_without_intermediate	test	ward_and_allport	71	23.0	0.187	to_board	poldrack-single-stim	s640	False
309.536	1.0	2.816	309.535	0	PA_without_intermediate	test	ward_and_allport	-1	23.0	n/a	feedback	poldrack-single-stim	s640	False
312.36	4.886	4.886	317.246	1	PA_with_intermediate	test	ward_and_allport	71	24.0	4.886	to_hand	poldrack-single-stim	s640	False
317.247	0.1	0.313	317.56	0	PA_with_intermediate	test	ward_and_allport	89	24.0	0.313	to_board	poldrack-single-stim	s640	False
317.568	0.1	0.338	317.906	0	PA_with_intermediate	test	ward_and_allport	71	24.0	0.338	to_hand	poldrack-single-stim	s640	False
317.907	0.1	0.287	318.194	0	PA_with_intermediate	test	ward_and_allport	82	24.0	0.287	to_board	poldrack-single-stim	s640	False
318.201	0.1	0.522	318.723	0	PA_with_intermediate	test	ward_and_allport	89	24.0	0.522	to_hand	poldrack-single-stim	s640	False
318.725	0.1	0.37	319.095	0	PA_with_intermediate	test	ward_and_allport	71	24.0	0.37	to_board	poldrack-single-stim	s640	False
319.105	1.0	4.176	319.104	0	PA_with_intermediate	test	ward_and_allport	-1	24.0	n/a	feedback	poldrack-single-stim	s640	False
323.289	3.519	3.519	326.808	1	PA_with_intermediate	test	ward_and_allport	89	25.0	3.519	to_hand	poldrack-single-stim	s640	False
326.809	0.1	0.117	326.926	0	PA_with_intermediate	test	ward_and_allport	89	25.0	0.117	to_board	poldrack-single-stim	s640	False
326.932	0.1	0.88	327.812	0	PA_with_intermediate	test	ward_and_allport	89	25.0	0.88	to_hand	poldrack-single-stim	s640	False
327.813	0.1	0.317	328.13	0	PA_with_intermediate	test	ward_and_allport	71	25.0	0.317	to_board	poldrack-single-stim	s640	False
328.137	0.1	0.379	328.516	0	PA_with_intermediate	test	ward_and_allport	89	25.0	0.379	to_hand	poldrack-single-stim	s640	False
328.517	0.1	0.32	328.837	0	PA_with_intermediate	test	ward_and_allport	82	25.0	0.32	to_board	poldrack-single-stim	s640	False
328.844	0.1	0.616	329.46	0	PA_with_intermediate	test	ward_and_allport	71	25.0	0.616	to_hand	poldrack-single-stim	s640	False
329.462	0.1	0.309	329.771	0	PA_with_intermediate	test	ward_and_allport	82	25.0	0.309	to_board	poldrack-single-stim	s640	False
329.782	1.0	3.36	329.781	0	PA_with_intermediate	test	ward_and_allport	-1	25.0	n/a	feedback	poldrack-single-stim	s640	False
333.149	3.148	3.148	336.297	1	PA_with_intermediate	test	ward_and_allport	82	26.0	3.148	to_hand	poldrack-single-stim	s640	False
336.298	0.1	0.334	336.632	0	PA_with_intermediate	test	ward_and_allport	71	26.0	0.334	to_board	poldrack-single-stim	s640	False
336.638	0.1	1.529	338.167	0	PA_with_intermediate	test	ward_and_allport	82	26.0	1.529	to_hand	poldrack-single-stim	s640	False
338.168	0.1	1.085	339.253	0	PA_with_intermediate	test	ward_and_allport	89	26.0	1.085	to_board	poldrack-single-stim	s640	False
339.261	0.1	0.606	339.867	0	PA_with_intermediate	test	ward_and_allport	71	26.0	0.606	to_hand	poldrack-single-stim	s640	False
339.868	0.1	0.252	340.12	0	PA_with_intermediate	test	ward_and_allport	82	26.0	0.252	to_board	poldrack-single-stim	s640	False
340.127	1.0	2.0	340.126	0	PA_with_intermediate	test	ward_and_allport	-1	26.0	n/a	feedback	poldrack-single-stim	s640	False
342.135	4.186	4.186	346.321	1	PA_without_intermediate	test	ward_and_allport	71	27.0	4.186	to_hand	poldrack-single-stim	s640	False
346.322	0.1	0.328	346.65	0	PA_without_intermediate	test	ward_and_allport	82	27.0	0.328	to_board	poldrack-single-stim	s640	False
346.656	0.1	0.376	347.032	0	PA_without_intermediate	test	ward_and_allport	71	27.0	0.376	to_hand	poldrack-single-stim	s640	False
347.034	0.1	0.779	347.813	0	PA_without_intermediate	test	ward_and_allport	89	27.0	0.779	to_board	poldrack-single-stim	s640	False
347.819	0.1	0.573	348.392	0	PA_without_intermediate	test	ward_and_allport	71	27.0	0.573	to_hand	poldrack-single-stim	s640	False
348.393	0.1	0.206	348.599	0	PA_without_intermediate	test	ward_and_allport	82	27.0	0.206	to_board	poldrack-single-stim	s640	False
348.606	1.0	2.408	348.605	0	PA_without_intermediate	test	ward_and_allport	-1	27.0	n/a	feedback	poldrack-single-stim	s640	False
351.021	3.339	3.339	354.36	1	PA_with_intermediate	test	ward_and_allport	89	28.0	3.339	to_hand	poldrack-single-stim	s640	False
354.361	0.1	0.248	354.609	0	PA_with_intermediate	test	ward_and_allport	82	28.0	0.248	to_board	poldrack-single-stim	s640	False
354.615	0.1	0.486	355.101	0	PA_with_intermediate	test	ward_and_allport	89	28.0	0.486	to_hand	poldrack-single-stim	s640	False
355.102	0.1	0.29	355.392	0	PA_with_intermediate	test	ward_and_allport	71	28.0	0.29	to_board	poldrack-single-stim	s640	False
355.4	0.1	0.494	355.894	0	PA_with_intermediate	test	ward_and_allport	82	28.0	0.494	to_hand	poldrack-single-stim	s640	False
355.894	0.1	0.264	356.158	0	PA_with_intermediate	test	ward_and_allport	71	28.0	0.264	to_board	poldrack-single-stim	s640	False
356.167	1.0	2.816	356.166	0	PA_with_intermediate	test	ward_and_allport	-1	28.0	n/a	feedback	poldrack-single-stim	s640	False
358.992	4.369	4.369	363.361	1	PA_without_intermediate	test	ward_and_allport	89	29.0	4.369	to_hand	poldrack-single-stim	s640	False
363.363	0.1	0.253	363.616	0	PA_without_intermediate	test	ward_and_allport	71	29.0	0.253	to_board	poldrack-single-stim	s640	False
363.624	0.1	0.289	363.913	0	PA_without_intermediate	test	ward_and_allport	89	29.0	0.289	to_hand	poldrack-single-stim	s640	False
363.915	0.1	0.32	364.235	0	PA_without_intermediate	test	ward_and_allport	82	29.0	0.32	to_board	poldrack-single-stim	s640	False
364.244	0.1	0.36	364.604	0	PA_without_intermediate	test	ward_and_allport	89	29.0	0.36	to_hand	poldrack-single-stim	s640	False
364.606	0.1	0.769	365.375	0	PA_without_intermediate	test	ward_and_allport	71	29.0	0.769	to_board	poldrack-single-stim	s640	False
365.385	1.0	3.088	365.384	0	PA_without_intermediate	test	ward_and_allport	-1	29.0	n/a	feedback	poldrack-single-stim	s640	False
373.485	4.602	4.602	378.087	1	PA_without_intermediate	test	ward_and_allport	82	30.0	4.602	to_hand	poldrack-single-stim	s640	False
378.088	0.1	0.411	378.499	0	PA_without_intermediate	test	ward_and_allport	89	30.0	0.411	to_board	poldrack-single-stim	s640	False
378.507	0.1	1.604	380.111	0	PA_without_intermediate	test	ward_and_allport	82	30.0	1.604	to_hand	poldrack-single-stim	s640	False
380.112	0.1	0.369	380.481	0	PA_without_intermediate	test	ward_and_allport	89	30.0	0.369	to_board	poldrack-single-stim	s640	False
380.49	0.1	1.068	381.558	0	PA_without_intermediate	test	ward_and_allport	82	30.0	1.068	to_hand	poldrack-single-stim	s640	False
381.559	0.1	0.22	381.779	0	PA_without_intermediate	test	ward_and_allport	71	30.0	0.22	to_board	poldrack-single-stim	s640	False
381.788	1.0	2.136	381.787	0	PA_without_intermediate	test	ward_and_allport	-1	30.0	n/a	feedback	poldrack-single-stim	s640	False
383.934	4.197	4.197	388.131	1	PA_without_intermediate	test	ward_and_allport	71	31.0	4.197	to_hand	poldrack-single-stim	s640	False
388.133	0.1	0.373	388.506	0	PA_without_intermediate	test	ward_and_allport	82	31.0	0.373	to_board	poldrack-single-stim	s640	False
388.514	0.1	0.562	389.076	0	PA_without_intermediate	test	ward_and_allport	71	31.0	0.562	to_hand	poldrack-single-stim	s640	False
389.078	0.1	0.374	389.452	0	PA_without_intermediate	test	ward_and_allport	89	31.0	0.374	to_board	poldrack-single-stim	s640	False
389.462	0.1	0.351	389.813	0	PA_without_intermediate	test	ward_and_allport	71	31.0	0.351	to_hand	poldrack-single-stim	s640	False
389.815	0.1	0.208	390.023	0	PA_without_intermediate	test	ward_and_allport	82	31.0	0.208	to_board	poldrack-single-stim	s640	False
390.037	1.0	7.168	390.036	0	PA_without_intermediate	test	ward_and_allport	-1	31.0	n/a	feedback	poldrack-single-stim	s640	False
397.213	5.586	5.586	402.799	1	PA_without_intermediate	test	ward_and_allport	89	32.0	5.586	to_hand	poldrack-single-stim	s640	False
402.801	0.1	0.3	403.101	0	PA_without_intermediate	test	ward_and_allport	82	32.0	0.3	to_board	poldrack-single-stim	s640	False
403.11	0.1	0.973	404.083	0	PA_without_intermediate	test	ward_and_allport	89	32.0	0.973	to_hand	poldrack-single-stim	s640	False
404.084	0.1	0.284	404.368	0	PA_without_intermediate	test	ward_and_allport	71	32.0	0.284	to_board	poldrack-single-stim	s640	False
404.378	0.1	0.254	404.632	0	PA_without_intermediate	test	ward_and_allport	89	32.0	0.254	to_hand	poldrack-single-stim	s640	False
404.634	0.1	0.233	404.867	0	PA_without_intermediate	test	ward_and_allport	82	32.0	0.233	to_board	poldrack-single-stim	s640	False
404.882	1.0	2.816	404.881	0	PA_without_intermediate	test	ward_and_allport	-1	32.0	n/a	feedback	poldrack-single-stim	s640	False
407.709	5.197	5.197	412.906	1	PA_with_intermediate	test	ward_and_allport	71	33.0	5.197	to_hand	poldrack-single-stim	s640	False
412.908	0.1	0.242	413.15	0	PA_with_intermediate	test	ward_and_allport	89	33.0	0.242	to_board	poldrack-single-stim	s640	False
413.16	0.1	0.335	413.495	0	PA_with_intermediate	test	ward_and_allport	71	33.0	0.335	to_hand	poldrack-single-stim	s640	False
413.497	0.1	0.27	413.767	0	PA_with_intermediate	test	ward_and_allport	82	33.0	0.27	to_board	poldrack-single-stim	s640	False
413.777	0.1	0.283	414.06	0	PA_with_intermediate	test	ward_and_allport	89	33.0	0.283	to_hand	poldrack-single-stim	s640	False
414.061	0.1	0.219	414.28	0	PA_with_intermediate	test	ward_and_allport	82	33.0	0.219	to_board	poldrack-single-stim	s640	False
414.294	1.0	2.952	414.293	0	PA_with_intermediate	test	ward_and_allport	-1	33.0	n/a	feedback	poldrack-single-stim	s640	False
417.257	6.332	6.332	423.589	1	PA_with_intermediate	test	ward_and_allport	82	34.0	6.332	to_hand	poldrack-single-stim	s640	False
423.591	0.1	0.488	424.079	0	PA_with_intermediate	test	ward_and_allport	71	34.0	0.488	to_board	poldrack-single-stim	s640	False
424.086	0.1	0.585	424.671	0	PA_with_intermediate	test	ward_and_allport	82	34.0	0.585	to_hand	poldrack-single-stim	s640	False
424.673	0.1	0.526	425.199	0	PA_with_intermediate	test	ward_and_allport	89	34.0	0.526	to_board	poldrack-single-stim	s640	False
425.209	0.1	0.288	425.497	0	PA_with_intermediate	test	ward_and_allport	71	34.0	0.288	to_hand	poldrack-single-stim	s640	False
425.498	0.1	0.171	425.669	0	PA_with_intermediate	test	ward_and_allport	82	34.0	0.171	to_board	poldrack-single-stim	s640	False
425.68	1.0	2.136	425.679	0	PA_with_intermediate	test	ward_and_allport	-1	34.0	n/a	feedback	poldrack-single-stim	s640	False
427.827	3.051	3.051	430.878	1	PA_without_intermediate	test	ward_and_allport	71	35.0	3.051	to_hand	poldrack-single-stim	s640	False
430.88	0.1	0.248	431.128	0	PA_without_intermediate	test	ward_and_allport	82	35.0	0.248	to_board	poldrack-single-stim	s640	False
431.138	0.1	0.359	431.497	0	PA_without_intermediate	test	ward_and_allport	71	35.0	0.359	to_hand	poldrack-single-stim	s640	False
431.498	0.1	0.217	431.715	0	PA_without_intermediate	test	ward_and_allport	82	35.0	0.217	to_board	poldrack-single-stim	s640	False
431.726	0.1	0.998	432.724	0	PA_without_intermediate	test	ward_and_allport	71	35.0	0.998	to_hand	poldrack-single-stim	s640	False
432.726	0.1	0.264	432.99	0	PA_without_intermediate	test	ward_and_allport	89	35.0	0.264	to_board	poldrack-single-stim	s640	False
433.001	1.0	2.68	433.0	0	PA_without_intermediate	test	ward_and_allport	-1	35.0	n/a	feedback	poldrack-single-stim	s640	False
435.689	4.693	4.693	440.382	1	PA_without_intermediate	test	ward_and_allport	82	36.0	4.693	to_hand	poldrack-single-stim	s640	False
440.383	0.1	0.285	440.668	0	PA_without_intermediate	test	ward_and_allport	71	36.0	0.285	to_board	poldrack-single-stim	s640	False
440.675	0.1	0.328	441.003	0	PA_without_intermediate	test	ward_and_allport	82	36.0	0.328	to_hand	poldrack-single-stim	s640	False
441.004	0.1	0.33	441.334	0	PA_without_intermediate	test	ward_and_allport	89	36.0	0.33	to_board	poldrack-single-stim	s640	False
441.343	0.1	0.398	441.741	0	PA_without_intermediate	test	ward_and_allport	82	36.0	0.398	to_hand	poldrack-single-stim	s640	False
441.742	0.1	0.568	442.31	0	PA_without_intermediate	test	ward_and_allport	71	36.0	0.568	to_board	poldrack-single-stim	s640	False
442.321	1.0	3.088	442.32	0	PA_without_intermediate	test	ward_and_allport	-1	36.0	n/a	feedback	poldrack-single-stim	s640	False
445.419	5.809	5.809	451.228	1	PA_with_intermediate	test	ward_and_allport	89	37.0	5.809	to_hand	poldrack-single-stim	s640	False
451.229	0.1	0.472	451.701	0	PA_with_intermediate	test	ward_and_allport	82	37.0	0.472	to_board	poldrack-single-stim	s640	False
451.712	0.1	1.01	452.722	0	PA_with_intermediate	test	ward_and_allport	89	37.0	1.01	to_hand	poldrack-single-stim	s640	False
452.724	0.1	0.315	453.039	0	PA_with_intermediate	test	ward_and_allport	71	37.0	0.315	to_board	poldrack-single-stim	s640	False
453.048	0.1	0.438	453.486	0	PA_with_intermediate	test	ward_and_allport	82	37.0	0.438	to_hand	poldrack-single-stim	s640	False
453.488	0.1	1.059	454.547	0	PA_with_intermediate	test	ward_and_allport	89	37.0	1.059	to_board	poldrack-single-stim	s640	False
454.559	1.0	2.0	454.558	0	PA_with_intermediate	test	ward_and_allport	-1	37.0	n/a	feedback	poldrack-single-stim	s640	False
456.569	3.107	3.107	459.676	1	PA_without_intermediate	test	ward_and_allport	89	38.0	3.107	to_hand	poldrack-single-stim	s640	False
459.678	0.1	0.364	460.042	0	PA_without_intermediate	test	ward_and_allport	71	38.0	0.364	to_board	poldrack-single-stim	s640	False
460.049	0.1	0.36	460.409	0	PA_without_intermediate	test	ward_and_allport	89	38.0	0.36	to_hand	poldrack-single-stim	s640	False
460.41	0.1	0.447	460.857	0	PA_without_intermediate	test	ward_and_allport	82	38.0	0.447	to_board	poldrack-single-stim	s640	False
460.868	0.1	0.424	461.292	0	PA_without_intermediate	test	ward_and_allport	89	38.0	0.424	to_hand	poldrack-single-stim	s640	False
461.292	0.1	0.299	461.591	0	PA_without_intermediate	test	ward_and_allport	71	38.0	0.299	to_board	poldrack-single-stim	s640	False
461.599	1.0	2.0	461.598	0	PA_without_intermediate	test	ward_and_allport	-1	38.0	n/a	feedback	poldrack-single-stim	s640	False
463.608	3.494	3.494	467.102	1	PA_without_intermediate	test	ward_and_allport	82	39.0	3.494	to_hand	poldrack-single-stim	s640	False
467.103	0.1	0.372	467.475	0	PA_without_intermediate	test	ward_and_allport	71	39.0	0.372	to_board	poldrack-single-stim	s640	False
467.481	0.1	0.869	468.35	0	PA_without_intermediate	test	ward_and_allport	82	39.0	0.869	to_hand	poldrack-single-stim	s640	False
468.351	0.1	0.431	468.782	0	PA_without_intermediate	test	ward_and_allport	71	39.0	0.431	to_board	poldrack-single-stim	s640	False
468.791	0.1	0.307	469.098	0	PA_without_intermediate	test	ward_and_allport	82	39.0	0.307	to_hand	poldrack-single-stim	s640	False
469.1	0.1	0.43	469.53	0	PA_without_intermediate	test	ward_and_allport	89	39.0	0.43	to_board	poldrack-single-stim	s640	False
469.546	1.0	2.0	469.545	0	PA_without_intermediate	test	ward_and_allport	-1	39.0	n/a	feedback	poldrack-single-stim	s640	False
471.555	4.519	4.519	476.074	1	PA_with_intermediate	test	ward_and_allport	71	40.0	4.519	to_hand	poldrack-single-stim	s640	False
476.075	0.1	0.63	476.705	0	PA_with_intermediate	test	ward_and_allport	89	40.0	0.63	to_board	poldrack-single-stim	s640	False
476.713	0.1	0.728	477.441	0	PA_with_intermediate	test	ward_and_allport	71	40.0	0.728	to_hand	poldrack-single-stim	s640	False
477.442	0.1	0.519	477.961	0	PA_with_intermediate	test	ward_and_allport	82	40.0	0.519	to_board	poldrack-single-stim	s640	False
477.973	0.1	0.549	478.522	0	PA_with_intermediate	test	ward_and_allport	89	40.0	0.549	to_hand	poldrack-single-stim	s640	False
478.523	0.1	0.331	478.854	0	PA_with_intermediate	test	ward_and_allport	82	40.0	0.331	to_board	poldrack-single-stim	s640	False
478.869	1.0	2.544	478.868	0	PA_with_intermediate	test	ward_and_allport	-1	40.0	n/a	feedback	poldrack-single-stim	s640	False
481.426	7.184	7.184	488.61	1	PA_without_intermediate	test	ward_and_allport	82	41.0	7.184	to_hand	poldrack-single-stim	s640	False
488.611	0.1	0.605	489.216	0	PA_without_intermediate	test	ward_and_allport	71	41.0	0.605	to_board	poldrack-single-stim	s640	False
489.227	0.1	0.566	489.793	0	PA_without_intermediate	test	ward_and_allport	82	41.0	0.566	to_hand	poldrack-single-stim	s640	False
489.794	0.1	0.444	490.238	0	PA_without_intermediate	test	ward_and_allport	89	41.0	0.444	to_board	poldrack-single-stim	s640	False
490.249	0.1	0.448	490.697	0	PA_without_intermediate	test	ward_and_allport	82	41.0	0.448	to_hand	poldrack-single-stim	s640	False
490.699	0.1	0.256	490.955	0	PA_without_intermediate	test	ward_and_allport	71	41.0	0.256	to_board	poldrack-single-stim	s640	False
490.97	1.0	2.272	490.969	0	PA_without_intermediate	test	ward_and_allport	-1	41.0	n/a	feedback	poldrack-single-stim	s640	False
493.253	3.133	3.133	496.386	1	PA_with_intermediate	test	ward_and_allport	89	42.0	3.133	to_hand	poldrack-single-stim	s640	False
496.388	0.1	0.304	496.692	0	PA_with_intermediate	test	ward_and_allport	71	42.0	0.304	to_board	poldrack-single-stim	s640	False
496.702	0.1	0.281	496.983	0	PA_with_intermediate	test	ward_and_allport	89	42.0	0.281	to_hand	poldrack-single-stim	s640	False
496.985	0.1	0.444	497.429	0	PA_with_intermediate	test	ward_and_allport	82	42.0	0.444	to_board	poldrack-single-stim	s640	False
497.439	0.1	0.391	497.83	0	PA_with_intermediate	test	ward_and_allport	71	42.0	0.391	to_hand	poldrack-single-stim	s640	False
497.832	0.1	0.246	498.078	0	PA_with_intermediate	test	ward_and_allport	89	42.0	0.246	to_board	poldrack-single-stim	s640	False
498.088	1.0	4.04	498.087	0	PA_with_intermediate	test	ward_and_allport	-1	42.0	n/a	feedback	poldrack-single-stim	s640	False
502.139	3.188	3.188	505.327	1	PA_with_intermediate	test	ward_and_allport	71	43.0	3.188	to_hand	poldrack-single-stim	s640	False
505.328	0.1	0.419	505.747	0	PA_with_intermediate	test	ward_and_allport	82	43.0	0.419	to_board	poldrack-single-stim	s640	False
505.757	0.1	0.418	506.175	0	PA_with_intermediate	test	ward_and_allport	71	43.0	0.418	to_hand	poldrack-single-stim	s640	False
506.176	0.1	0.331	506.507	0	PA_with_intermediate	test	ward_and_allport	89	43.0	0.331	to_board	poldrack-single-stim	s640	False
506.517	0.1	0.409	506.926	0	PA_with_intermediate	test	ward_and_allport	82	43.0	0.409	to_hand	poldrack-single-stim	s640	False
506.927	0.1	0.257	507.184	0	PA_with_intermediate	test	ward_and_allport	89	43.0	0.257	to_board	poldrack-single-stim	s640	False
507.198	1.0	2.272	507.197	0	PA_with_intermediate	test	ward_and_allport	-1	43.0	n/a	feedback	poldrack-single-stim	s640	False
509.48	5.888	5.888	515.368	1	PA_with_intermediate	test	ward_and_allport	89	44.0	5.888	to_hand	poldrack-single-stim	s640	False
515.37	0.1	0.37	515.74	0	PA_with_intermediate	test	ward_and_allport	71	44.0	0.37	to_board	poldrack-single-stim	s640	False
515.749	0.1	0.341	516.09	0	PA_with_intermediate	test	ward_and_allport	89	44.0	0.341	to_hand	poldrack-single-stim	s640	False
516.091	0.1	0.359	516.45	0	PA_with_intermediate	test	ward_and_allport	82	44.0	0.359	to_board	poldrack-single-stim	s640	False
516.461	0.1	1.195	517.656	0	PA_with_intermediate	test	ward_and_allport	71	44.0	1.195	to_hand	poldrack-single-stim	s640	False
517.657	0.1	0.22	517.877	0	PA_with_intermediate	test	ward_and_allport	89	44.0	0.22	to_board	poldrack-single-stim	s640	False
517.892	1.0	2.136	517.891	0	PA_with_intermediate	test	ward_and_allport	-1	44.0	n/a	feedback	poldrack-single-stim	s640	False
525.044	3.573	3.573	528.617	1	PA_with_intermediate	test	ward_and_allport	82	45.0	3.573	to_hand	poldrack-single-stim	s640	False
528.618	0.1	0.274	528.892	0	PA_with_intermediate	test	ward_and_allport	89	45.0	0.274	to_board	poldrack-single-stim	s640	False
528.905	0.1	0.832	529.737	0	PA_with_intermediate	test	ward_and_allport	82	45.0	0.832	to_hand	poldrack-single-stim	s640	False
529.739	0.1	0.29	530.029	0	PA_with_intermediate	test	ward_and_allport	71	45.0	0.29	to_board	poldrack-single-stim	s640	False
530.042	0.1	0.322	530.364	0	PA_with_intermediate	test	ward_and_allport	89	45.0	0.322	to_hand	poldrack-single-stim	s640	False
530.365	0.1	0.197	530.562	0	PA_with_intermediate	test	ward_and_allport	71	45.0	0.197	to_board	poldrack-single-stim	s640	False
530.577	1.0	2.0	530.576	0	PA_with_intermediate	test	ward_and_allport	-1	45.0	n/a	feedback	poldrack-single-stim	s640	False
532.588	3.899	3.899	536.487	1	PA_with_intermediate	test	ward_and_allport	71	46.0	3.899	to_hand	poldrack-single-stim	s640	False
536.489	0.1	0.323	536.812	0	PA_with_intermediate	test	ward_and_allport	89	46.0	0.323	to_board	poldrack-single-stim	s640	False
536.82	0.1	0.283	537.103	0	PA_with_intermediate	test	ward_and_allport	71	46.0	0.283	to_hand	poldrack-single-stim	s640	False
537.105	0.1	0.29	537.395	0	PA_with_intermediate	test	ward_and_allport	82	46.0	0.29	to_board	poldrack-single-stim	s640	False
537.405	0.1	0.253	537.658	0	PA_with_intermediate	test	ward_and_allport	89	46.0	0.253	to_hand	poldrack-single-stim	s640	False
537.66	0.1	0.618	538.278	0	PA_with_intermediate	test	ward_and_allport	71	46.0	0.618	to_board	poldrack-single-stim	s640	False
538.291	1.0	2.0	538.29	0	PA_with_intermediate	test	ward_and_allport	-1	46.0	n/a	feedback	poldrack-single-stim	s640	False
540.299	5.166	5.166	545.465	1	PA_without_intermediate	test	ward_and_allport	82	47.0	5.166	to_hand	poldrack-single-stim	s640	False
545.466	0.1	0.412	545.878	0	PA_without_intermediate	test	ward_and_allport	71	47.0	0.412	to_board	poldrack-single-stim	s640	False
545.887	0.1	0.668	546.555	0	PA_without_intermediate	test	ward_and_allport	82	47.0	0.668	to_hand	poldrack-single-stim	s640	False
546.557	0.1	0.453	547.01	0	PA_without_intermediate	test	ward_and_allport	71	47.0	0.453	to_board	poldrack-single-stim	s640	False
547.02	0.1	0.324	547.344	0	PA_without_intermediate	test	ward_and_allport	82	47.0	0.324	to_hand	poldrack-single-stim	s640	False
547.345	0.1	0.257	547.602	0	PA_without_intermediate	test	ward_and_allport	89	47.0	0.257	to_board	poldrack-single-stim	s640	False
547.617	1.0	2.408	547.616	0	PA_without_intermediate	test	ward_and_allport	-1	47.0	n/a	feedback	poldrack-single-stim	s640	False
