onset	duration	movement_onset	block_duration	condition	correct	correct_response	experiment_exp_id	key_press	response_time	trial_id	trial_type	worker_id	junk
4.525	1.5	5.912	1.772	AX	1.0	89.0	dot_pattern_expectancy	89.0	0.387	probe	AX	s593	False
8.807	1.5	10.143	1.5	AX	1.0	89.0	dot_pattern_expectancy	89.0	0.336	probe	AX	s593	False
12.82	1.5	14.257	2.452	AY	1.0	71.0	dot_pattern_expectancy	71.0	0.437	probe	AY	s593	False
17.783	1.5	19.216	1.772	AY	1.0	71.0	dot_pattern_expectancy	71.0	0.433	probe	AY	s593	False
22.064	1.5	23.418	1.908	AX	1.0	89.0	dot_pattern_expectancy	89.0	0.354	probe	AX	s593	False
26.485	1.5	27.893	1.908	AX	1.0	89.0	dot_pattern_expectancy	89.0	0.408	probe	AX	s593	False
30.904	1.5	32.353	2.588	AX	1.0	89.0	dot_pattern_expectancy	89.0	0.449	probe	AX	s593	False
36.003	1.5	37.478	1.5	AY	1.0	71.0	dot_pattern_expectancy	71.0	0.475	probe	AY	s593	False
40.014	1.5	41.252	1.5	BY	1.0	71.0	dot_pattern_expectancy	71.0	0.238	probe	BY	s593	False
44.032	1.5	45.257	1.5	BY	1.0	71.0	dot_pattern_expectancy	71.0	0.225	probe	BY	s593	False
48.043	1.5	49.39	1.636	AX	1.0	89.0	dot_pattern_expectancy	89.0	0.347	probe	AX	s593	False
52.19	1.5	53.422	2.044	BX	1.0	71.0	dot_pattern_expectancy	71.0	0.232	probe	BX	s593	False
56.741	1.5	58.125	1.772	AX	1.0	89.0	dot_pattern_expectancy	89.0	0.384	probe	AX	s593	False
61.028	1.5	62.351	2.588	BX	1.0	71.0	dot_pattern_expectancy	71.0	0.323	probe	BX	s593	False
66.129	1.5	67.622	1.5	AY	1.0	71.0	dot_pattern_expectancy	71.0	0.493	probe	AY	s593	False
70.145	1.5	71.601	2.452	AX	1.0	89.0	dot_pattern_expectancy	89.0	0.456	probe	AX	s593	False
75.105	1.5	76.39	1.636	BY	1.0	71.0	dot_pattern_expectancy	71.0	0.285	probe	BY	s593	False
79.249	1.5	80.61	1.636	AX	1.0	89.0	dot_pattern_expectancy	89.0	0.361	probe	AX	s593	False
83.398	1.5	84.735	1.5	AX	1.0	89.0	dot_pattern_expectancy	89.0	0.337	probe	AX	s593	False
87.409	1.5	88.664	1.636	BY	1.0	71.0	dot_pattern_expectancy	71.0	0.255	probe	BY	s593	False
91.556	1.5	92.93	1.5	AX	1.0	89.0	dot_pattern_expectancy	89.0	0.374	probe	AX	s593	False
95.57	1.5	96.961	2.18	AY	1.0	71.0	dot_pattern_expectancy	71.0	0.391	probe	AY	s593	False
100.266	1.5	101.735	1.5	AX	1.0	89.0	dot_pattern_expectancy	89.0	0.469	probe	AX	s593	False
104.28	1.5	105.647	1.908	AX	1.0	89.0	dot_pattern_expectancy	89.0	0.367	probe	AX	s593	False
108.701	1.5	110.027	1.636	BY	1.0	71.0	dot_pattern_expectancy	71.0	0.326	probe	BY	s593	False
112.85	1.5	114.171	1.636	BY	1.0	71.0	dot_pattern_expectancy	71.0	0.321	probe	BY	s593	False
116.994	1.5	118.33	1.636	AX	1.0	89.0	dot_pattern_expectancy	89.0	0.336	probe	AX	s593	False
121.143	1.5	122.543	1.5	AX	1.0	89.0	dot_pattern_expectancy	89.0	0.4	probe	AX	s593	False
125.157	1.5	126.411	2.044	BY	1.0	71.0	dot_pattern_expectancy	71.0	0.254	probe	BY	s593	False
129.715	1.5	131.164	2.18	AY	1.0	71.0	dot_pattern_expectancy	71.0	0.449	probe	AY	s593	False
134.405	1.5	135.837	1.636	AY	0.0	71.0	dot_pattern_expectancy	89.0	0.432	probe	AY	s593	False
138.553	1.5	139.96	1.772	AY	1.0	71.0	dot_pattern_expectancy	71.0	0.407	probe	AY	s593	False
142.836	1.5	144.189	1.5	BY	1.0	71.0	dot_pattern_expectancy	71.0	0.353	probe	BY	s593	False
146.846	1.5	148.114	1.908	BX	1.0	71.0	dot_pattern_expectancy	71.0	0.268	probe	BX	s593	False
151.264	1.5	152.692	2.044	AX	1.0	89.0	dot_pattern_expectancy	89.0	0.428	probe	AX	s593	False
155.817	1.5	157.242	1.636	AX	1.0	89.0	dot_pattern_expectancy	89.0	0.425	probe	AX	s593	False
159.963	1.5	161.445	1.772	AX	1.0	89.0	dot_pattern_expectancy	89.0	0.482	probe	AX	s593	False
164.243	1.5	165.728	1.636	AX	1.0	89.0	dot_pattern_expectancy	89.0	0.485	probe	AX	s593	False
168.39	1.5	169.633	1.772	BX	1.0	71.0	dot_pattern_expectancy	71.0	0.243	probe	BX	s593	False
172.675	1.5	174.04	1.5	AX	1.0	89.0	dot_pattern_expectancy	89.0	0.365	probe	AX	s593	False
187.193	1.5	188.503	1.636	BY	1.0	71.0	dot_pattern_expectancy	71.0	0.31	probe	BY	s593	False
191.34	1.5	192.809	1.5	AY	1.0	71.0	dot_pattern_expectancy	71.0	0.469	probe	AY	s593	False
195.351	1.5	196.705	2.044	AX	1.0	89.0	dot_pattern_expectancy	89.0	0.354	probe	AX	s593	False
199.906	1.5	201.17	1.772	BY	1.0	71.0	dot_pattern_expectancy	71.0	0.264	probe	BY	s593	False
204.186	1.5	205.465	1.636	BX	1.0	71.0	dot_pattern_expectancy	71.0	0.279	probe	BX	s593	False
208.33	1.5	209.681	1.636	AX	1.0	89.0	dot_pattern_expectancy	89.0	0.351	probe	AX	s593	False
212.482	1.5	213.858	1.5	AX	1.0	89.0	dot_pattern_expectancy	89.0	0.376	probe	AX	s593	False
216.487	1.5	217.928	1.5	AX	1.0	89.0	dot_pattern_expectancy	89.0	0.441	probe	AX	s593	False
220.497	1.5	221.987	2.044	AY	1.0	71.0	dot_pattern_expectancy	71.0	0.49	probe	AY	s593	False
225.05	1.5	226.537	2.452	AX	1.0	89.0	dot_pattern_expectancy	89.0	0.487	probe	AX	s593	False
230.011	1.5	231.385	1.908	AX	1.0	89.0	dot_pattern_expectancy	89.0	0.374	probe	AX	s593	False
234.431	1.5	235.796	1.5	AX	1.0	89.0	dot_pattern_expectancy	89.0	0.365	probe	AX	s593	False
238.443	1.5	239.806	1.908	AX	1.0	89.0	dot_pattern_expectancy	89.0	0.363	probe	AX	s593	False
242.864	1.5	244.121	2.18	BX	1.0	71.0	dot_pattern_expectancy	71.0	0.257	probe	BX	s593	False
247.55	1.5	248.902	1.5	AX	1.0	89.0	dot_pattern_expectancy	89.0	0.352	probe	AX	s593	False
251.563	1.5	252.817	1.908	BY	1.0	71.0	dot_pattern_expectancy	71.0	0.254	probe	BY	s593	False
255.987	1.5	257.256	2.316	BX	1.0	71.0	dot_pattern_expectancy	71.0	0.269	probe	BX	s593	False
260.814	1.5	262.422	2.316	AY	1.0	71.0	dot_pattern_expectancy	71.0	0.608	probe	AY	s593	False
265.643	1.5	266.889	1.636	BX	1.0	71.0	dot_pattern_expectancy	71.0	0.246	probe	BX	s593	False
269.79	1.5	271.206	1.5	AY	1.0	71.0	dot_pattern_expectancy	71.0	0.416	probe	AY	s593	False
273.8	1.5	275.076	1.908	BY	1.0	71.0	dot_pattern_expectancy	71.0	0.276	probe	BY	s593	False
278.225	1.5	279.578	1.5	AX	1.0	89.0	dot_pattern_expectancy	89.0	0.353	probe	AX	s593	False
282.239	1.5	283.632	2.316	AY	1.0	71.0	dot_pattern_expectancy	71.0	0.393	probe	AY	s593	False
287.067	1.5	288.422	1.5	AX	1.0	89.0	dot_pattern_expectancy	89.0	0.355	probe	AX	s593	False
291.079	1.5	292.485	2.724	AY	1.0	71.0	dot_pattern_expectancy	71.0	0.406	probe	AY	s593	False
296.316	1.5	297.735	1.5	AX	1.0	89.0	dot_pattern_expectancy	89.0	0.419	probe	AX	s593	False
300.327	1.5	301.726	1.636	AX	1.0	89.0	dot_pattern_expectancy	89.0	0.399	probe	AX	s593	False
304.475	1.5	305.816	1.636	AX	1.0	89.0	dot_pattern_expectancy	89.0	0.341	probe	AX	s593	False
308.623	1.5	310.119	1.772	AX	1.0	89.0	dot_pattern_expectancy	89.0	0.496	probe	AX	s593	False
312.906	1.5	314.131	1.772	BY	1.0	71.0	dot_pattern_expectancy	71.0	0.225	probe	BY	s593	False
317.189	1.5	318.53	1.5	AX	1.0	89.0	dot_pattern_expectancy	89.0	0.341	probe	AX	s593	False
321.197	1.5	322.518	2.452	BY	1.0	71.0	dot_pattern_expectancy	71.0	0.321	probe	BY	s593	False
326.154	1.5	327.53	1.636	AX	1.0	89.0	dot_pattern_expectancy	89.0	0.376	probe	AX	s593	False
330.301	1.5	331.634	1.636	AX	1.0	89.0	dot_pattern_expectancy	89.0	0.333	probe	AX	s593	False
334.447	1.5	335.693	1.5	BX	1.0	71.0	dot_pattern_expectancy	71.0	0.246	probe	BX	s593	False
338.457	1.5	339.752	1.5	BX	1.0	71.0	dot_pattern_expectancy	71.0	0.295	probe	BX	s593	False
342.47	1.5	343.842	2.316	AX	1.0	89.0	dot_pattern_expectancy	89.0	0.372	probe	AX	s593	False
347.296	1.5	348.723	2.044	AY	1.0	71.0	dot_pattern_expectancy	71.0	0.427	probe	AY	s593	False
351.851	1.5	353.299	3.948	AX	1.0	89.0	dot_pattern_expectancy	89.0	0.448	probe	AX	s593	False
358.312	1.5	359.678	1.636	AX	1.0	89.0	dot_pattern_expectancy	89.0	0.366	probe	AX	s593	False
372.974	1.5	374.386	1.636	AY	1.0	71.0	dot_pattern_expectancy	71.0	0.412	probe	AY	s593	False
377.129	1.5	378.468	1.636	AX	1.0	89.0	dot_pattern_expectancy	89.0	0.339	probe	AX	s593	False
381.281	1.5	382.628	1.5	AX	1.0	89.0	dot_pattern_expectancy	89.0	0.347	probe	AX	s593	False
385.292	1.5	386.667	1.5	AX	1.0	89.0	dot_pattern_expectancy	89.0	0.375	probe	AX	s593	False
389.3	1.5	390.673	1.908	AX	1.0	89.0	dot_pattern_expectancy	89.0	0.373	probe	AX	s593	False
393.716	1.5	395.034	1.636	BX	1.0	71.0	dot_pattern_expectancy	71.0	0.318	probe	BX	s593	False
397.865	1.5	399.211	2.044	AX	1.0	89.0	dot_pattern_expectancy	89.0	0.346	probe	AX	s593	False
402.423	1.5	403.839	1.772	AX	1.0	89.0	dot_pattern_expectancy	89.0	0.416	probe	AX	s593	False
406.71	1.5	408.104	1.5	AX	1.0	89.0	dot_pattern_expectancy	89.0	0.394	probe	AX	s593	False
410.719	1.5	412.084	2.18	AX	1.0	89.0	dot_pattern_expectancy	89.0	0.365	probe	AX	s593	False
415.41	1.5	416.853	1.5	AX	1.0	89.0	dot_pattern_expectancy	89.0	0.443	probe	AX	s593	False
419.416	1.5	420.71	3.676	BX	1.0	71.0	dot_pattern_expectancy	71.0	0.294	probe	BX	s593	False
425.6	1.5	426.858	1.636	BY	1.0	71.0	dot_pattern_expectancy	71.0	0.258	probe	BY	s593	False
429.744	1.5	431.026	1.636	BY	1.0	71.0	dot_pattern_expectancy	71.0	0.282	probe	BY	s593	False
433.89	1.5	435.217	1.5	BX	1.0	71.0	dot_pattern_expectancy	71.0	0.327	probe	BX	s593	False
437.899	1.5	439.242	1.908	AX	1.0	89.0	dot_pattern_expectancy	89.0	0.343	probe	AX	s593	False
442.315	1.5	443.692	1.636	AX	1.0	89.0	dot_pattern_expectancy	89.0	0.377	probe	AX	s593	False
446.456	1.5	447.709	1.5	BX	1.0	71.0	dot_pattern_expectancy	71.0	0.253	probe	BX	s593	False
450.472	1.5	451.81	1.908	AX	1.0	89.0	dot_pattern_expectancy	89.0	0.338	probe	AX	s593	False
454.891	1.5	456.242	2.18	BY	1.0	71.0	dot_pattern_expectancy	71.0	0.351	probe	BY	s593	False
459.584	1.5	461.041	1.772	AX	1.0	89.0	dot_pattern_expectancy	89.0	0.457	probe	AX	s593	False
463.87	1.5	465.266	1.5	AX	1.0	89.0	dot_pattern_expectancy	89.0	0.396	probe	AX	s593	False
467.881	1.5	469.184	1.5	AX	1.0	89.0	dot_pattern_expectancy	89.0	0.303	probe	AX	s593	False
471.891	1.5	473.472	2.044	AX	1.0	89.0	dot_pattern_expectancy	89.0	0.581	probe	AX	s593	False
476.445	1.5	477.755	2.86	AX	1.0	89.0	dot_pattern_expectancy	89.0	0.31	probe	AX	s593	False
481.817	1.5	483.106	1.5	BX	1.0	71.0	dot_pattern_expectancy	71.0	0.289	probe	BX	s593	False
485.828	1.5	487.065	1.772	BY	1.0	71.0	dot_pattern_expectancy	71.0	0.237	probe	BY	s593	False
490.111	1.5	491.408	1.772	AX	1.0	89.0	dot_pattern_expectancy	89.0	0.297	probe	AX	s593	False
494.393	1.5	495.781	2.86	AX	1.0	89.0	dot_pattern_expectancy	89.0	0.388	probe	AX	s593	False
499.762	1.5	501.165	1.772	AX	1.0	89.0	dot_pattern_expectancy	89.0	0.403	probe	AX	s593	False
504.049	1.5	505.352	1.636	BX	1.0	71.0	dot_pattern_expectancy	71.0	0.303	probe	BX	s593	False
508.194	1.5	509.54	2.452	BX	1.0	71.0	dot_pattern_expectancy	71.0	0.346	probe	BX	s593	False
513.154	1.5	514.534	1.636	AX	1.0	89.0	dot_pattern_expectancy	89.0	0.38	probe	AX	s593	False
517.299	1.5	518.554	1.5	BX	1.0	71.0	dot_pattern_expectancy	71.0	0.255	probe	BX	s593	False
521.309	1.5	522.631	1.636	AX	1.0	89.0	dot_pattern_expectancy	89.0	0.322	probe	AX	s593	False
525.453	1.5	526.753	1.636	AX	1.0	89.0	dot_pattern_expectancy	89.0	0.3	probe	AX	s593	False
529.605	1.5	531.02	2.18	BY	1.0	71.0	dot_pattern_expectancy	71.0	0.415	probe	BY	s593	False
534.298	1.5	535.657	1.5	AX	1.0	89.0	dot_pattern_expectancy	89.0	0.359	probe	AX	s593	False
538.307	1.5	539.811	1.636	AY	1.0	71.0	dot_pattern_expectancy	71.0	0.504	probe	AY	s593	False
542.456	1.5	543.851	1.636	AX	0.0	89.0	dot_pattern_expectancy	71.0	0.395	probe	AX	s593	False
557.118	1.5	558.467	2.18	AX	1.0	89.0	dot_pattern_expectancy	89.0	0.349	probe	AX	s593	False
561.809	1.5	563.275	2.316	AY	1.0	71.0	dot_pattern_expectancy	71.0	0.466	probe	AY	s593	False
566.638	1.5	568.016	1.636	AY	1.0	71.0	dot_pattern_expectancy	71.0	0.378	probe	AY	s593	False
570.782	1.5	572.026	1.908	BX	1.0	71.0	dot_pattern_expectancy	71.0	0.244	probe	BX	s593	False
575.198	1.5	576.511	3.54	AX	1.0	89.0	dot_pattern_expectancy	89.0	0.313	probe	AX	s593	False
581.252	1.5	582.604	1.636	BX	1.0	71.0	dot_pattern_expectancy	71.0	0.352	probe	BX	s593	False
585.398	1.5	586.678	1.5	BY	1.0	71.0	dot_pattern_expectancy	71.0	0.28	probe	BY	s593	False
589.409	1.5	590.858	1.5	AX	1.0	89.0	dot_pattern_expectancy	89.0	0.449	probe	AX	s593	False
593.422	1.5	594.761	1.772	AX	1.0	89.0	dot_pattern_expectancy	89.0	0.339	probe	AX	s593	False
597.705	1.5	598.976	2.452	BY	1.0	71.0	dot_pattern_expectancy	71.0	0.271	probe	BY	s593	False
602.666	1.5	604.051	1.908	AX	1.0	89.0	dot_pattern_expectancy	89.0	0.385	probe	AX	s593	False
607.085	1.5	608.387	1.636	BX	1.0	71.0	dot_pattern_expectancy	71.0	0.302	probe	BX	s593	False
611.234	1.5	612.565	1.5	AX	0.0	89.0	dot_pattern_expectancy	71.0	0.331	probe	AX	s593	False
615.244	1.5	616.57	1.636	AX	1.0	89.0	dot_pattern_expectancy	89.0	0.326	probe	AX	s593	False
619.386	1.5	620.733	1.636	AX	1.0	89.0	dot_pattern_expectancy	89.0	0.347	probe	AX	s593	False
623.53	1.5	624.898	2.452	BY	1.0	71.0	dot_pattern_expectancy	71.0	0.368	probe	BY	s593	False
628.488	1.5	629.78	1.5	AX	1.0	89.0	dot_pattern_expectancy	89.0	0.292	probe	AX	s593	False
632.498	1.5	633.723	1.5	BY	1.0	71.0	dot_pattern_expectancy	71.0	0.225	probe	BY	s593	False
636.509	1.5	637.829	1.636	AX	1.0	89.0	dot_pattern_expectancy	89.0	0.32	probe	AX	s593	False
640.656	1.5	642.019	1.636	AX	1.0	89.0	dot_pattern_expectancy	89.0	0.363	probe	AX	s593	False
644.804	1.5	646.318	1.636	AY	0.0	71.0	dot_pattern_expectancy	89.0	0.514	probe	AY	s593	False
648.952	1.5	650.469	1.5	AX	1.0	89.0	dot_pattern_expectancy	89.0	0.517	probe	AX	s593	False
652.963	1.5	654.36	1.5	AX	1.0	89.0	dot_pattern_expectancy	89.0	0.397	probe	AX	s593	False
656.976	1.5	658.41	1.772	AX	1.0	89.0	dot_pattern_expectancy	89.0	0.434	probe	AX	s593	False
661.261	1.5	662.654	2.18	AX	1.0	89.0	dot_pattern_expectancy	89.0	0.393	probe	AX	s593	False
665.955	1.5	667.23	1.772	BX	1.0	71.0	dot_pattern_expectancy	71.0	0.275	probe	BX	s593	False
670.24	1.5	671.487	1.5	BY	1.0	71.0	dot_pattern_expectancy	71.0	0.247	probe	BY	s593	False
674.254	1.5	675.676	1.5	AX	1.0	89.0	dot_pattern_expectancy	89.0	0.422	probe	AX	s593	False
678.262	1.5	679.716	1.636	AX	0.0	89.0	dot_pattern_expectancy	71.0	0.454	probe	AX	s593	False
682.406	1.5	683.994	2.18	AY	1.0	71.0	dot_pattern_expectancy	71.0	0.588	probe	AY	s593	False
687.099	1.5	688.5	2.316	AY	1.0	71.0	dot_pattern_expectancy	71.0	0.401	probe	AY	s593	False
691.927	1.5	693.248	1.636	BX	1.0	71.0	dot_pattern_expectancy	71.0	0.321	probe	BX	s593	False
696.071	1.5	697.313	2.18	BX	1.0	71.0	dot_pattern_expectancy	71.0	0.242	probe	BX	s593	False
700.756	1.5	702.238	2.044	AY	1.0	71.0	dot_pattern_expectancy	71.0	0.482	probe	AY	s593	False
705.316	1.5	706.673	1.772	AX	1.0	89.0	dot_pattern_expectancy	89.0	0.357	probe	AX	s593	False
709.594	1.5	710.928	1.5	AX	1.0	89.0	dot_pattern_expectancy	89.0	0.334	probe	AX	s593	False
713.604	1.5	714.991	2.18	AX	1.0	89.0	dot_pattern_expectancy	89.0	0.387	probe	AX	s593	False
718.295	1.5	719.777	2.452	AY	1.0	71.0	dot_pattern_expectancy	71.0	0.482	probe	AY	s593	False
723.255	1.5	724.607	1.636	AX	1.0	89.0	dot_pattern_expectancy	89.0	0.352	probe	AX	s593	False
727.4	1.5	728.848	1.908	AX	1.0	89.0	dot_pattern_expectancy	89.0	0.448	probe	AX	s593	False
