onset	duration	correct	correct_response	cue	experiment_exp_id	flanker_location	flanker_middle_direction	flanker_type	key_press	response_time	worker_id
3.521864	1.7	1.0	71.0	double	attention_network_task	down	right	congruent	71	0.604	s593
6.132	1.7	1.0	71.0	double	attention_network_task	up	right	incongruent	71	0.701	s593
8.741	1.7	1.0	71.0	spatial	attention_network_task	down	right	congruent	71	0.523	s593
11.353592	1.7	1.0	71.0	double	attention_network_task	up	right	congruent	71	0.473	s593
13.961456	1.7	1.0	89.0	double	attention_network_task	down	left	congruent	89	0.554	s593
16.574592	1.7	1.0	89.0	spatial	attention_network_task	up	left	incongruent	89	0.675	s593
19.191	1.7	1.0	71.0	spatial	attention_network_task	up	right	congruent	71	0.519	s593
21.801592	1.7	1.0	89.0	double	attention_network_task	up	left	congruent	89	0.554	s593
24.41	1.7	1.0	71.0	spatial	attention_network_task	down	right	congruent	71	0.486	s593
27.022592	1.7	1.0	89.0	spatial	attention_network_task	down	left	congruent	89	0.58	s593
29.631	1.7	1.0	89.0	spatial	attention_network_task	up	left	incongruent	89	0.572	s593
32.239	1.7	1.0	89.0	spatial	attention_network_task	up	left	incongruent	89	0.555	s593
34.846591999999994	1.7	1.0	89.0	spatial	attention_network_task	up	left	incongruent	89	0.524	s593
37.454864	1.7	1.0	89.0	spatial	attention_network_task	up	left	incongruent	89	0.569	s593
40.062728	1.7	1.0	89.0	double	attention_network_task	down	left	incongruent	89	0.732	s593
42.675456	1.7	1.0	71.0	double	attention_network_task	up	right	incongruent	71	0.63	s593
45.283728	1.7	1.0	71.0	spatial	attention_network_task	up	right	incongruent	71	0.493	s593
47.895	1.7	1.0	89.0	spatial	attention_network_task	down	left	incongruent	89	0.675	s593
50.510591999999995	1.7	1.0	89.0	spatial	attention_network_task	down	left	incongruent	89	0.652	s593
53.119	1.7	1.0	89.0	spatial	attention_network_task	down	left	congruent	89	0.512	s593
55.727	1.7	1.0	89.0	double	attention_network_task	up	left	congruent	89	0.558	s593
58.334455999999996	1.7	1.0	71.0	double	attention_network_task	down	right	incongruent	71	0.547	s593
60.942592	1.7	1.0	89.0	spatial	attention_network_task	down	left	congruent	89	0.527	s593
63.556	1.7	1.0	89.0	spatial	attention_network_task	down	left	congruent	89	0.475	s593
66.171864	1.7	1.0	89.0	spatial	attention_network_task	up	left	congruent	89	0.583	s593
68.782184	1.7	1.0	71.0	spatial	attention_network_task	up	right	incongruent	71	0.602	s593
71.39086400000001	1.7	1.0	71.0	double	attention_network_task	up	right	congruent	71	0.575	s593
74.003	1.7	1.0	71.0	spatial	attention_network_task	down	right	congruent	71	0.49	s593
76.611864	1.7	1.0	71.0	double	attention_network_task	down	right	incongruent	71	0.553	s593
79.219864	1.7	1.0	89.0	spatial	attention_network_task	down	left	incongruent	89	0.503	s593
81.827864	1.7	1.0	89.0	double	attention_network_task	up	left	incongruent	89	0.735	s593
84.435456	1.7	1.0	89.0	spatial	attention_network_task	up	left	congruent	89	0.426	s593
87.044	1.7	1.0	71.0	spatial	attention_network_task	up	right	congruent	71	0.431	s593
89.651728	1.7	1.0	89.0	double	attention_network_task	up	left	incongruent	89	0.451	s593
92.26	1.7	1.0	71.0	spatial	attention_network_task	up	right	congruent	71	0.399	s593
94.867864	1.7	1.0	89.0	spatial	attention_network_task	up	left	congruent	89	0.477	s593
97.481592	1.7	1.0	89.0	double	attention_network_task	down	left	incongruent	89	0.623	s593
100.08945600000001	1.7	1.0	89.0	double	attention_network_task	down	left	congruent	89	0.511	s593
102.698	1.7	1.0	71.0	double	attention_network_task	down	right	incongruent	71	0.581	s593
105.305864	1.7	1.0	89.0	spatial	attention_network_task	down	left	incongruent	89	0.62	s593
107.913864	1.7	1.0	71.0	double	attention_network_task	down	right	incongruent	71	0.514	s593
110.52186400000001	1.7	1.0	71.0	spatial	attention_network_task	down	right	incongruent	71	0.526	s593
113.129864	1.7	1.0	71.0	double	attention_network_task	up	right	congruent	71	0.538	s593
115.737728	1.7	1.0	89.0	spatial	attention_network_task	down	left	incongruent	89	0.497	s593
118.349864	1.7	1.0	71.0	spatial	attention_network_task	up	right	incongruent	71	0.525	s593
120.960592	1.7	1.0	89.0	spatial	attention_network_task	up	left	incongruent	89	0.569	s593
123.572	1.7	1.0	89.0	double	attention_network_task	down	left	incongruent	89	0.63	s593
126.179864	1.7	1.0	89.0	double	attention_network_task	down	left	congruent	89	0.495	s593
128.788	1.7	1.0	71.0	spatial	attention_network_task	up	right	congruent	71	0.467	s593
131.395864	1.7	1.0	71.0	double	attention_network_task	up	right	incongruent	71	0.47	s593
134.003048	1.7	1.0	71.0	spatial	attention_network_task	up	right	congruent	71	0.452	s593
136.611728	1.7	1.0	71.0	double	attention_network_task	up	right	congruent	71	0.424	s593
139.225864	1.7	1.0	89.0	double	attention_network_task	up	left	congruent	89	0.521	s593
141.839	1.7	1.0	71.0	double	attention_network_task	up	right	incongruent	71	0.506	s593
144.450864	1.7	1.0	71.0	spatial	attention_network_task	up	right	incongruent	71	0.445	s593
147.06	1.7	1.0	71.0	double	attention_network_task	down	right	congruent	71	0.504	s593
149.667864	1.7	1.0	89.0	spatial	attention_network_task	down	left	incongruent	89	0.495	s593
152.27572800000002	1.7	1.0	89.0	double	attention_network_task	up	left	incongruent	89	0.784	s593
154.883728	1.7	1.0	71.0	spatial	attention_network_task	down	right	incongruent	71	0.653	s593
157.493864	1.7	1.0	71.0	double	attention_network_task	up	right	congruent	71	0.422	s593
160.106	1.7	1.0	89.0	double	attention_network_task	up	left	incongruent	89	0.488	s593
162.713864	1.7	1.0	89.0	double	attention_network_task	up	left	incongruent	89	0.435	s593
165.327	1.7	1.0	71.0	spatial	attention_network_task	down	right	congruent	71	0.627	s593
167.939728	1.7	1.0	89.0	double	attention_network_task	up	left	congruent	89	0.541	s593
181.064	1.7	1.0	71.0	spatial	attention_network_task	down	right	incongruent	71	0.654	s593
183.674	1.7	1.0	71.0	spatial	attention_network_task	down	right	incongruent	71	0.529	s593
186.281864	1.7	1.0	89.0	spatial	attention_network_task	up	left	congruent	89	0.515	s593
188.889728	1.7	1.0	71.0	spatial	attention_network_task	up	right	congruent	71	0.46	s593
191.497592	1.7	1.0	71.0	double	attention_network_task	down	right	incongruent	71	0.605	s593
194.111	1.7	1.0	89.0	double	attention_network_task	down	left	congruent	89	0.543	s593
196.723864	1.7	1.0	89.0	double	attention_network_task	up	left	congruent	89	0.479	s593
199.332864	1.7	1.0	89.0	spatial	attention_network_task	up	left	congruent	89	0.422	s593
201.94	1.7	1.0	89.0	double	attention_network_task	down	left	congruent	89	0.486	s593
204.547592	1.7	1.0	89.0	double	attention_network_task	up	left	incongruent	89	0.637	s593
207.16145600000002	1.7	1.0	89.0	spatial	attention_network_task	down	left	congruent	89	0.52	s593
209.769864	1.7	1.0	89.0	spatial	attention_network_task	down	left	congruent	89	0.431	s593
212.382864	1.7	1.0	89.0	spatial	attention_network_task	up	left	congruent	89	0.449	s593
214.991	1.7	1.0	89.0	spatial	attention_network_task	down	left	incongruent	89	0.47	s593
217.603	1.7	1.0	71.0	double	attention_network_task	down	right	congruent	71	0.448	s593
220.212864	1.7	1.0	89.0	double	attention_network_task	up	left	congruent	89	0.465	s593
222.82	1.7	1.0	71.0	double	attention_network_task	down	right	congruent	71	0.426	s593
225.430864	1.7	1.0	71.0	double	attention_network_task	down	right	congruent	71	0.447	s593
228.042	1.7	1.0	89.0	double	attention_network_task	down	left	congruent	89	0.451	s593
230.649592	1.7	1.0	71.0	spatial	attention_network_task	down	right	congruent	71	0.453	s593
233.263	1.7	1.0	71.0	spatial	attention_network_task	down	right	incongruent	71	0.445	s593
235.870184	1.7	1.0	89.0	double	attention_network_task	up	left	incongruent	89	0.528	s593
238.47832	1.7	1.0	89.0	spatial	attention_network_task	up	left	congruent	89	0.482	s593
241.087	1.7	1.0	71.0	spatial	attention_network_task	down	right	congruent	71	0.59	s593
243.697864	1.7	1.0	89.0	spatial	attention_network_task	up	left	congruent	89	0.49	s593
246.304864	1.7	1.0	71.0	double	attention_network_task	down	right	incongruent	71	0.506	s593
248.915864	1.7	1.0	89.0	double	attention_network_task	up	left	incongruent	89	0.568	s593
251.527	1.7	1.0	71.0	double	attention_network_task	down	right	incongruent	71	0.44	s593
254.137864	1.7	1.0	71.0	spatial	attention_network_task	up	right	incongruent	71	0.575	s593
256.750048	1.7	1.0	89.0	spatial	attention_network_task	down	left	incongruent	89	0.564	s593
259.358864	1.7	1.0	89.0	double	attention_network_task	down	left	incongruent	89	0.481	s593
261.966592	1.7	1.0	89.0	double	attention_network_task	down	left	incongruent	89	0.52	s593
264.574048	1.7	1.0	71.0	spatial	attention_network_task	up	right	incongruent	71	0.539	s593
267.182864	1.7	1.0	89.0	double	attention_network_task	down	left	incongruent	89	0.618	s593
269.790728	1.7	1.0	71.0	double	attention_network_task	up	right	incongruent	71	0.449	s593
272.398728	1.7	1.0	71.0	double	attention_network_task	up	right	incongruent	71	0.45	s593
275.012	1.7	1.0	89.0	double	attention_network_task	up	left	congruent	89	0.448	s593
277.62	1.7	1.0	71.0	spatial	attention_network_task	down	right	incongruent	71	0.615	s593
280.231728	1.7	1.0	71.0	spatial	attention_network_task	up	right	congruent	71	0.53	s593
282.842	1.7	1.0	89.0	spatial	attention_network_task	down	left	congruent	89	0.504	s593
285.45	1.7	1.0	71.0	spatial	attention_network_task	down	right	incongruent	71	0.457	s593
288.059728	1.7	1.0	89.0	double	attention_network_task	up	left	congruent	89	0.508	s593
290.671	1.7	1.0	89.0	spatial	attention_network_task	up	left	incongruent	89	0.578	s593
293.280864	1.7	1.0	89.0	spatial	attention_network_task	down	left	congruent	89	0.542	s593
295.891728	1.7	1.0	71.0	spatial	attention_network_task	up	right	congruent	71	0.407	s593
298.5	1.7	1.0	71.0	spatial	attention_network_task	down	right	congruent	71	0.526	s593
301.114	1.7	1.0	89.0	double	attention_network_task	down	left	incongruent	89	0.614	s593
303.722	1.7	1.0	71.0	double	attention_network_task	down	right	congruent	71	0.55	s593
306.33	1.7	1.0	71.0	spatial	attention_network_task	down	right	incongruent	71	0.414	s593
308.938	1.7	1.0	71.0	double	attention_network_task	up	right	congruent	71	0.599	s593
311.551	1.7	1.0	89.0	spatial	attention_network_task	up	left	incongruent	89	0.565	s593
314.158728	1.7	1.0	89.0	double	attention_network_task	down	left	congruent	89	0.513	s593
316.771864	1.7	1.0	71.0	double	attention_network_task	up	right	incongruent	71	0.576	s593
319.384912	1.7	1.0	71.0	double	attention_network_task	down	right	incongruent	71	0.52	s593
321.996728	1.7	1.0	71.0	spatial	attention_network_task	down	right	congruent	71	0.524	s593
324.611864	1.7	1.0	71.0	spatial	attention_network_task	down	right	congruent	71	0.434	s593
327.21986400000003	1.7	1.0	71.0	double	attention_network_task	up	right	congruent	71	0.482	s593
329.834	1.7	1.0	71.0	double	attention_network_task	down	right	congruent	71	0.477	s593
332.442	1.7	1.0	71.0	spatial	attention_network_task	up	right	incongruent	71	0.53	s593
335.05	1.7	1.0	71.0	spatial	attention_network_task	up	right	congruent	71	0.447	s593
337.658	1.7	1.0	71.0	double	attention_network_task	up	right	incongruent	71	0.442	s593
340.265864	1.7	1.0	71.0	spatial	attention_network_task	up	right	incongruent	71	0.386	s593
342.873728	1.7	1.0	89.0	double	attention_network_task	down	left	incongruent	89	0.679	s593
345.481864	1.7	1.0	89.0	spatial	attention_network_task	up	left	congruent	89	0.509	s593
