onset	duration	block_duration	movement_onset	planning	condition	exp_stage	experiment_exp_id	key_press	problem_id	response_time	trial_id	trial_type	worker_id	junk
3.014	6.118	6.118	9.132	1	UA_with_intermediate	practice	ward_and_allport	71	0.0	6.118	to_hand	poldrack-single-stim	s593	False
9.134	0.1	1.041	10.175	0	UA_with_intermediate	practice	ward_and_allport	82	0.0	1.041	to_board	poldrack-single-stim	s593	False
10.177	0.1	0.676	10.853	0	UA_with_intermediate	practice	ward_and_allport	71	0.0	0.676	to_hand	poldrack-single-stim	s593	False
10.854	0.1	0.553	11.407	0	UA_with_intermediate	practice	ward_and_allport	89	0.0	0.553	to_board	poldrack-single-stim	s593	False
11.409	0.1	1.431	12.84	0	UA_with_intermediate	practice	ward_and_allport	82	0.0	1.431	to_hand	poldrack-single-stim	s593	False
12.841	0.1	0.543	13.384	0	UA_with_intermediate	practice	ward_and_allport	89	0.0	0.543	to_board	poldrack-single-stim	s593	False
13.387	1.0	2.5	13.386	0	UA_with_intermediate	practice	ward_and_allport	-1	0.0	n/a	feedback	poldrack-single-stim	s593	False
15.889	4.505	4.505	20.394	1	UA_with_intermediate	practice	ward_and_allport	89	1.0	4.505	to_hand	poldrack-single-stim	s593	False
20.395	0.1	0.671	21.066	0	UA_with_intermediate	practice	ward_and_allport	82	1.0	0.671	to_board	poldrack-single-stim	s593	False
21.068	0.1	0.654	21.722	0	UA_with_intermediate	practice	ward_and_allport	71	1.0	0.654	to_hand	poldrack-single-stim	s593	False
21.723	0.1	0.463	22.186	0	UA_with_intermediate	practice	ward_and_allport	89	1.0	0.463	to_board	poldrack-single-stim	s593	False
22.188	0.1	0.848	23.036	0	UA_with_intermediate	practice	ward_and_allport	82	1.0	0.848	to_hand	poldrack-single-stim	s593	False
23.037	0.1	0.335	23.372	0	UA_with_intermediate	practice	ward_and_allport	89	1.0	0.335	to_board	poldrack-single-stim	s593	False
23.376	1.0	2.1	23.375	0	UA_with_intermediate	practice	ward_and_allport	-1	1.0	n/a	feedback	poldrack-single-stim	s593	False
25.478	12.129	12.129	37.607	1	UA_without_intermediate	practice	ward_and_allport	71	2.0	12.129	to_hand	poldrack-single-stim	s593	False
37.608	0.1	9.894	47.502	0	UA_without_intermediate	practice	ward_and_allport	71	2.0	9.894	to_board	poldrack-single-stim	s593	False
47.504	0.1	0.967	48.471	0	UA_without_intermediate	practice	ward_and_allport	82	2.0	0.967	to_hand	poldrack-single-stim	s593	False
48.472	0.1	0.427	48.899	0	UA_without_intermediate	practice	ward_and_allport	89	2.0	0.427	to_board	poldrack-single-stim	s593	False
48.901	0.1	1.478	50.379	0	UA_without_intermediate	practice	ward_and_allport	71	2.0	1.478	to_hand	poldrack-single-stim	s593	False
50.38	0.1	0.386	50.766	0	UA_without_intermediate	practice	ward_and_allport	89	2.0	0.386	to_board	poldrack-single-stim	s593	False
50.769	0.1	0.614	51.383	0	UA_without_intermediate	practice	ward_and_allport	71	2.0	0.614	to_hand	poldrack-single-stim	s593	False
51.384	0.1	0.28	51.664	0	UA_without_intermediate	practice	ward_and_allport	89	2.0	0.28	to_board	poldrack-single-stim	s593	False
51.67	1.0	2.2	51.669	0	UA_without_intermediate	practice	ward_and_allport	-1	2.0	n/a	feedback	poldrack-single-stim	s593	False
53.872	3.746	3.746	57.618	1	UA_without_intermediate	practice	ward_and_allport	71	3.0	3.746	to_hand	poldrack-single-stim	s593	False
57.619	0.1	0.322	57.941	0	UA_without_intermediate	practice	ward_and_allport	89	3.0	0.322	to_board	poldrack-single-stim	s593	False
57.943	0.1	1.166	59.109	0	UA_without_intermediate	practice	ward_and_allport	82	3.0	1.166	to_hand	poldrack-single-stim	s593	False
59.11	0.1	0.267	59.377	0	UA_without_intermediate	practice	ward_and_allport	89	3.0	0.267	to_board	poldrack-single-stim	s593	False
59.379	0.1	0.315	59.694	0	UA_without_intermediate	practice	ward_and_allport	71	3.0	0.315	to_hand	poldrack-single-stim	s593	False
59.695	0.1	0.304	59.999	0	UA_without_intermediate	practice	ward_and_allport	89	3.0	0.304	to_board	poldrack-single-stim	s593	False
60.004	1.0	2.0	60.003	0	UA_without_intermediate	practice	ward_and_allport	-1	3.0	n/a	feedback	poldrack-single-stim	s593	False
64.01	17.447	17.447	81.457	1	PA_with_intermediate	test	ward_and_allport	89	0.0	17.447	to_hand	poldrack-single-stim	s593	False
81.458	0.1	1.354	82.812	0	PA_with_intermediate	test	ward_and_allport	71	0.0	1.354	to_board	poldrack-single-stim	s593	False
82.814	0.1	0.698	83.512	0	PA_with_intermediate	test	ward_and_allport	89	0.0	0.698	to_hand	poldrack-single-stim	s593	False
83.513	0.1	0.743	84.256	0	PA_with_intermediate	test	ward_and_allport	82	0.0	0.743	to_board	poldrack-single-stim	s593	False
84.258	0.1	1.809	86.067	0	PA_with_intermediate	test	ward_and_allport	71	0.0	1.809	to_hand	poldrack-single-stim	s593	False
86.068	0.1	0.345	86.413	0	PA_with_intermediate	test	ward_and_allport	89	0.0	0.345	to_board	poldrack-single-stim	s593	False
86.42	1.0	4.176	86.419	0	PA_with_intermediate	test	ward_and_allport	-1	0.0	n/a	feedback	poldrack-single-stim	s593	False
90.598	5.934	5.934	96.532	1	PA_with_intermediate	test	ward_and_allport	71	1.0	5.934	to_hand	poldrack-single-stim	s593	False
96.533	0.1	0.44	96.973	0	PA_with_intermediate	test	ward_and_allport	82	1.0	0.44	to_board	poldrack-single-stim	s593	False
96.975	0.1	1.289	98.264	0	PA_with_intermediate	test	ward_and_allport	71	1.0	1.289	to_hand	poldrack-single-stim	s593	False
98.265	0.1	0.341	98.606	0	PA_with_intermediate	test	ward_and_allport	89	1.0	0.341	to_board	poldrack-single-stim	s593	False
98.609	0.1	1.286	99.895	0	PA_with_intermediate	test	ward_and_allport	82	1.0	1.286	to_hand	poldrack-single-stim	s593	False
99.896	0.1	0.599	100.495	0	PA_with_intermediate	test	ward_and_allport	71	1.0	0.599	to_board	poldrack-single-stim	s593	False
100.5	1.0	3.36	100.499	0	PA_with_intermediate	test	ward_and_allport	-1	1.0	n/a	feedback	poldrack-single-stim	s593	False
103.864	4.448	4.448	108.312	1	PA_with_intermediate	test	ward_and_allport	82	2.0	4.448	to_hand	poldrack-single-stim	s593	False
108.313	0.1	0.37	108.683	0	PA_with_intermediate	test	ward_and_allport	89	2.0	0.37	to_board	poldrack-single-stim	s593	False
108.686	0.1	1.771	110.457	0	PA_with_intermediate	test	ward_and_allport	82	2.0	1.771	to_hand	poldrack-single-stim	s593	False
110.458	0.1	0.362	110.82	0	PA_with_intermediate	test	ward_and_allport	71	2.0	0.362	to_board	poldrack-single-stim	s593	False
110.822	0.1	2.832	113.654	0	PA_with_intermediate	test	ward_and_allport	89	2.0	2.832	to_hand	poldrack-single-stim	s593	False
113.655	0.1	0.505	114.16	0	PA_with_intermediate	test	ward_and_allport	71	2.0	0.505	to_board	poldrack-single-stim	s593	False
114.164	1.0	2.0	114.163	0	PA_with_intermediate	test	ward_and_allport	-1	2.0	n/a	feedback	poldrack-single-stim	s593	False
116.167	3.419	3.419	119.586	1	PA_without_intermediate	test	ward_and_allport	89	3.0	3.419	to_hand	poldrack-single-stim	s593	False
119.587	0.1	0.279	119.866	0	PA_without_intermediate	test	ward_and_allport	71	3.0	0.279	to_board	poldrack-single-stim	s593	False
119.868	0.1	1.086	120.954	0	PA_without_intermediate	test	ward_and_allport	89	3.0	1.086	to_hand	poldrack-single-stim	s593	False
120.956	0.1	0.494	121.45	0	PA_without_intermediate	test	ward_and_allport	82	3.0	0.494	to_board	poldrack-single-stim	s593	False
121.452	0.1	0.716	122.168	0	PA_without_intermediate	test	ward_and_allport	89	3.0	0.716	to_hand	poldrack-single-stim	s593	False
122.17	0.1	0.275	122.445	0	PA_without_intermediate	test	ward_and_allport	71	3.0	0.275	to_board	poldrack-single-stim	s593	False
122.45	1.0	2.408	122.449	0	PA_without_intermediate	test	ward_and_allport	-1	3.0	n/a	feedback	poldrack-single-stim	s593	False
124.86	4.353	4.353	129.213	1	PA_with_intermediate	test	ward_and_allport	89	4.0	4.353	to_hand	poldrack-single-stim	s593	False
129.214	0.1	0.333	129.547	0	PA_with_intermediate	test	ward_and_allport	71	4.0	0.333	to_board	poldrack-single-stim	s593	False
129.55	0.1	0.385	129.935	0	PA_with_intermediate	test	ward_and_allport	89	4.0	0.385	to_hand	poldrack-single-stim	s593	False
129.936	0.1	0.41	130.346	0	PA_with_intermediate	test	ward_and_allport	82	4.0	0.41	to_board	poldrack-single-stim	s593	False
130.349	0.1	0.968	131.317	0	PA_with_intermediate	test	ward_and_allport	71	4.0	0.968	to_hand	poldrack-single-stim	s593	False
131.318	0.1	0.24	131.558	0	PA_with_intermediate	test	ward_and_allport	89	4.0	0.24	to_board	poldrack-single-stim	s593	False
131.562	1.0	2.816	131.561	0	PA_with_intermediate	test	ward_and_allport	-1	4.0	n/a	feedback	poldrack-single-stim	s593	False
134.38	3.721	3.721	138.101	1	PA_without_intermediate	test	ward_and_allport	82	5.0	3.721	to_hand	poldrack-single-stim	s593	False
138.102	0.1	0.332	138.434	0	PA_without_intermediate	test	ward_and_allport	71	5.0	0.332	to_board	poldrack-single-stim	s593	False
138.437	0.1	0.995	139.432	0	PA_without_intermediate	test	ward_and_allport	82	5.0	0.995	to_hand	poldrack-single-stim	s593	False
139.434	0.1	0.278	139.712	0	PA_without_intermediate	test	ward_and_allport	89	5.0	0.278	to_board	poldrack-single-stim	s593	False
139.715	0.1	1.187	140.902	0	PA_without_intermediate	test	ward_and_allport	82	5.0	1.187	to_hand	poldrack-single-stim	s593	False
140.903	0.1	0.346	141.249	0	PA_without_intermediate	test	ward_and_allport	71	5.0	0.346	to_board	poldrack-single-stim	s593	False
141.252	1.0	3.088	141.251	0	PA_without_intermediate	test	ward_and_allport	-1	5.0	n/a	feedback	poldrack-single-stim	s593	False
144.343	4.031	4.031	148.374	1	PA_without_intermediate	test	ward_and_allport	82	6.0	4.031	to_hand	poldrack-single-stim	s593	False
148.375	0.1	0.256	148.631	0	PA_without_intermediate	test	ward_and_allport	89	6.0	0.256	to_board	poldrack-single-stim	s593	False
148.634	0.1	1.872	150.506	0	PA_without_intermediate	test	ward_and_allport	82	6.0	1.872	to_hand	poldrack-single-stim	s593	False
150.507	0.1	0.243	150.75	0	PA_without_intermediate	test	ward_and_allport	71	6.0	0.243	to_board	poldrack-single-stim	s593	False
150.753	0.1	0.535	151.288	0	PA_without_intermediate	test	ward_and_allport	82	6.0	0.535	to_hand	poldrack-single-stim	s593	False
151.289	0.1	0.312	151.601	0	PA_without_intermediate	test	ward_and_allport	89	6.0	0.312	to_board	poldrack-single-stim	s593	False
151.607	1.0	2.136	151.606	0	PA_without_intermediate	test	ward_and_allport	-1	6.0	n/a	feedback	poldrack-single-stim	s593	False
153.747	4.01	4.01	157.757	1	PA_without_intermediate	test	ward_and_allport	89	7.0	4.01	to_hand	poldrack-single-stim	s593	False
157.759	0.1	0.424	158.183	0	PA_without_intermediate	test	ward_and_allport	71	7.0	0.424	to_board	poldrack-single-stim	s593	False
158.188	0.1	1.348	159.536	0	PA_without_intermediate	test	ward_and_allport	89	7.0	1.348	to_hand	poldrack-single-stim	s593	False
159.537	0.1	0.265	159.802	0	PA_without_intermediate	test	ward_and_allport	82	7.0	0.265	to_board	poldrack-single-stim	s593	False
159.805	0.1	0.507	160.312	0	PA_without_intermediate	test	ward_and_allport	89	7.0	0.507	to_hand	poldrack-single-stim	s593	False
160.313	0.1	0.269	160.582	0	PA_without_intermediate	test	ward_and_allport	71	7.0	0.269	to_board	poldrack-single-stim	s593	False
160.589	1.0	7.168	160.588	0	PA_without_intermediate	test	ward_and_allport	-1	7.0	n/a	feedback	poldrack-single-stim	s593	False
167.761	3.049	3.049	170.81	1	PA_without_intermediate	test	ward_and_allport	89	8.0	3.049	to_hand	poldrack-single-stim	s593	False
170.812	0.1	0.282	171.094	0	PA_without_intermediate	test	ward_and_allport	82	8.0	0.282	to_board	poldrack-single-stim	s593	False
171.098	0.1	1.427	172.525	0	PA_without_intermediate	test	ward_and_allport	89	8.0	1.427	to_hand	poldrack-single-stim	s593	False
172.526	0.1	0.567	173.093	0	PA_without_intermediate	test	ward_and_allport	82	8.0	0.567	to_board	poldrack-single-stim	s593	False
173.097	0.1	0.4	173.497	0	PA_without_intermediate	test	ward_and_allport	89	8.0	0.4	to_hand	poldrack-single-stim	s593	False
173.499	0.1	0.266	173.765	0	PA_without_intermediate	test	ward_and_allport	71	8.0	0.266	to_board	poldrack-single-stim	s593	False
173.769	1.0	2.816	173.768	0	PA_without_intermediate	test	ward_and_allport	-1	8.0	n/a	feedback	poldrack-single-stim	s593	False
176.589	4.56	4.56	181.149	1	PA_with_intermediate	test	ward_and_allport	89	9.0	4.56	to_hand	poldrack-single-stim	s593	False
181.15	0.1	0.272	181.422	0	PA_with_intermediate	test	ward_and_allport	71	9.0	0.272	to_board	poldrack-single-stim	s593	False
181.426	0.1	0.306	181.732	0	PA_with_intermediate	test	ward_and_allport	89	9.0	0.306	to_hand	poldrack-single-stim	s593	False
181.733	0.1	0.426	182.159	0	PA_with_intermediate	test	ward_and_allport	82	9.0	0.426	to_board	poldrack-single-stim	s593	False
182.162	0.1	0.427	182.589	0	PA_with_intermediate	test	ward_and_allport	89	9.0	0.427	to_hand	poldrack-single-stim	s593	False
182.59	0.1	2.753	185.343	0	PA_with_intermediate	test	ward_and_allport	89	9.0	2.753	to_board	poldrack-single-stim	s593	False
185.347	0.1	1.026	186.373	0	PA_with_intermediate	test	ward_and_allport	71	9.0	1.026	to_hand	poldrack-single-stim	s593	False
186.374	0.1	0.891	187.265	0	PA_with_intermediate	test	ward_and_allport	82	9.0	0.891	to_board	poldrack-single-stim	s593	False
187.271	1.0	2.952	187.27	0	PA_with_intermediate	test	ward_and_allport	-1	9.0	n/a	feedback	poldrack-single-stim	s593	False
190.227	5.093	5.093	195.32	1	PA_with_intermediate	test	ward_and_allport	71	10.0	5.093	to_hand	poldrack-single-stim	s593	False
195.321	0.1	0.724	196.045	0	PA_with_intermediate	test	ward_and_allport	89	10.0	0.724	to_board	poldrack-single-stim	s593	False
196.049	0.1	0.593	196.642	0	PA_with_intermediate	test	ward_and_allport	71	10.0	0.593	to_hand	poldrack-single-stim	s593	False
196.643	0.1	0.346	196.989	0	PA_with_intermediate	test	ward_and_allport	82	10.0	0.346	to_board	poldrack-single-stim	s593	False
196.994	0.1	0.699	197.693	0	PA_with_intermediate	test	ward_and_allport	89	10.0	0.699	to_hand	poldrack-single-stim	s593	False
197.696	0.1	0.285	197.981	0	PA_with_intermediate	test	ward_and_allport	71	10.0	0.285	to_board	poldrack-single-stim	s593	False
197.985	1.0	2.136	197.984	0	PA_with_intermediate	test	ward_and_allport	-1	10.0	n/a	feedback	poldrack-single-stim	s593	False
200.125	2.701	2.701	202.826	1	PA_without_intermediate	test	ward_and_allport	82	11.0	2.701	to_hand	poldrack-single-stim	s593	False
202.827	0.1	0.244	203.071	0	PA_without_intermediate	test	ward_and_allport	71	11.0	0.244	to_board	poldrack-single-stim	s593	False
203.074	0.1	0.802	203.876	0	PA_without_intermediate	test	ward_and_allport	82	11.0	0.802	to_hand	poldrack-single-stim	s593	False
203.878	0.1	0.252	204.13	0	PA_without_intermediate	test	ward_and_allport	89	11.0	0.252	to_board	poldrack-single-stim	s593	False
204.134	0.1	1.573	205.707	0	PA_without_intermediate	test	ward_and_allport	82	11.0	1.573	to_hand	poldrack-single-stim	s593	False
205.708	0.1	0.261	205.969	0	PA_without_intermediate	test	ward_and_allport	71	11.0	0.261	to_board	poldrack-single-stim	s593	False
205.975	1.0	2.68	205.974	0	PA_without_intermediate	test	ward_and_allport	-1	11.0	n/a	feedback	poldrack-single-stim	s593	False
208.659	2.739	2.739	211.398	1	PA_without_intermediate	test	ward_and_allport	89	12.0	2.739	to_hand	poldrack-single-stim	s593	False
211.399	0.1	0.343	211.742	0	PA_without_intermediate	test	ward_and_allport	82	12.0	0.343	to_board	poldrack-single-stim	s593	False
211.746	0.1	0.999	212.745	0	PA_without_intermediate	test	ward_and_allport	89	12.0	0.999	to_hand	poldrack-single-stim	s593	False
212.747	0.1	0.274	213.021	0	PA_without_intermediate	test	ward_and_allport	71	12.0	0.274	to_board	poldrack-single-stim	s593	False
213.024	0.1	1.014	214.038	0	PA_without_intermediate	test	ward_and_allport	89	12.0	1.014	to_hand	poldrack-single-stim	s593	False
214.04	0.1	0.263	214.303	0	PA_without_intermediate	test	ward_and_allport	82	12.0	0.263	to_board	poldrack-single-stim	s593	False
214.308	1.0	3.088	214.307	0	PA_without_intermediate	test	ward_and_allport	-1	12.0	n/a	feedback	poldrack-single-stim	s593	False
217.4	4.915	4.915	222.315	1	PA_with_intermediate	test	ward_and_allport	89	13.0	4.915	to_hand	poldrack-single-stim	s593	False
222.317	0.1	0.297	222.614	0	PA_with_intermediate	test	ward_and_allport	82	13.0	0.297	to_board	poldrack-single-stim	s593	False
222.617	0.1	1.024	223.641	0	PA_with_intermediate	test	ward_and_allport	89	13.0	1.024	to_hand	poldrack-single-stim	s593	False
223.643	0.1	0.34	223.983	0	PA_with_intermediate	test	ward_and_allport	71	13.0	0.34	to_board	poldrack-single-stim	s593	False
223.987	0.1	0.775	224.762	0	PA_with_intermediate	test	ward_and_allport	82	13.0	0.775	to_hand	poldrack-single-stim	s593	False
224.763	0.1	0.261	225.024	0	PA_with_intermediate	test	ward_and_allport	89	13.0	0.261	to_board	poldrack-single-stim	s593	False
225.028	1.0	2.0	225.027	0	PA_with_intermediate	test	ward_and_allport	-1	13.0	n/a	feedback	poldrack-single-stim	s593	False
227.032	4.176	4.176	231.208	1	PA_without_intermediate	test	ward_and_allport	89	14.0	4.176	to_hand	poldrack-single-stim	s593	False
231.21	0.1	0.453	231.663	0	PA_without_intermediate	test	ward_and_allport	71	14.0	0.453	to_board	poldrack-single-stim	s593	False
231.667	0.1	0.91	232.577	0	PA_without_intermediate	test	ward_and_allport	89	14.0	0.91	to_hand	poldrack-single-stim	s593	False
232.578	0.1	0.466	233.044	0	PA_without_intermediate	test	ward_and_allport	71	14.0	0.466	to_board	poldrack-single-stim	s593	False
233.048	0.1	0.576	233.624	0	PA_without_intermediate	test	ward_and_allport	89	14.0	0.576	to_hand	poldrack-single-stim	s593	False
233.625	0.1	0.25	233.875	0	PA_without_intermediate	test	ward_and_allport	82	14.0	0.25	to_board	poldrack-single-stim	s593	False
233.881	1.0	2.0	233.88	0	PA_without_intermediate	test	ward_and_allport	-1	14.0	n/a	feedback	poldrack-single-stim	s593	False
240.888	3.184	3.184	244.072	1	PA_without_intermediate	test	ward_and_allport	89	15.0	3.184	to_hand	poldrack-single-stim	s593	False
244.073	0.1	0.275	244.348	0	PA_without_intermediate	test	ward_and_allport	71	15.0	0.275	to_board	poldrack-single-stim	s593	False
244.352	0.1	0.973	245.325	0	PA_without_intermediate	test	ward_and_allport	89	15.0	0.973	to_hand	poldrack-single-stim	s593	False
245.326	0.1	0.461	245.787	0	PA_without_intermediate	test	ward_and_allport	71	15.0	0.461	to_board	poldrack-single-stim	s593	False
245.791	0.1	0.544	246.335	0	PA_without_intermediate	test	ward_and_allport	89	15.0	0.544	to_hand	poldrack-single-stim	s593	False
246.336	0.1	0.397	246.733	0	PA_without_intermediate	test	ward_and_allport	82	15.0	0.397	to_board	poldrack-single-stim	s593	False
246.74	1.0	2.0	246.739	0	PA_without_intermediate	test	ward_and_allport	-1	15.0	n/a	feedback	poldrack-single-stim	s593	False
248.745	5.171	5.171	253.916	1	PA_with_intermediate	test	ward_and_allport	71	16.0	5.171	to_hand	poldrack-single-stim	s593	False
253.917	0.1	0.29	254.207	0	PA_with_intermediate	test	ward_and_allport	89	16.0	0.29	to_board	poldrack-single-stim	s593	False
254.213	0.1	0.413	254.626	0	PA_with_intermediate	test	ward_and_allport	71	16.0	0.413	to_hand	poldrack-single-stim	s593	False
254.627	0.1	0.493	255.12	0	PA_with_intermediate	test	ward_and_allport	82	16.0	0.493	to_board	poldrack-single-stim	s593	False
255.124	0.1	0.689	255.813	0	PA_with_intermediate	test	ward_and_allport	89	16.0	0.689	to_hand	poldrack-single-stim	s593	False
255.814	0.1	0.411	256.225	0	PA_with_intermediate	test	ward_and_allport	82	16.0	0.411	to_board	poldrack-single-stim	s593	False
256.234	1.0	2.544	256.233	0	PA_with_intermediate	test	ward_and_allport	-1	16.0	n/a	feedback	poldrack-single-stim	s593	False
258.783	4.648	4.648	263.431	1	PA_without_intermediate	test	ward_and_allport	82	17.0	4.648	to_hand	poldrack-single-stim	s593	False
263.433	0.1	0.675	264.108	0	PA_without_intermediate	test	ward_and_allport	71	17.0	0.675	to_board	poldrack-single-stim	s593	False
264.112	0.1	2.349	266.461	0	PA_without_intermediate	test	ward_and_allport	82	17.0	2.349	to_hand	poldrack-single-stim	s593	False
266.462	0.1	0.274	266.736	0	PA_without_intermediate	test	ward_and_allport	71	17.0	0.274	to_board	poldrack-single-stim	s593	False
266.74	0.1	0.701	267.441	0	PA_without_intermediate	test	ward_and_allport	82	17.0	0.701	to_hand	poldrack-single-stim	s593	False
267.442	0.1	0.233	267.675	0	PA_without_intermediate	test	ward_and_allport	89	17.0	0.233	to_board	poldrack-single-stim	s593	False
267.681	1.0	2.272	267.68	0	PA_without_intermediate	test	ward_and_allport	-1	17.0	n/a	feedback	poldrack-single-stim	s593	False
269.957	6.636	6.636	276.593	1	PA_with_intermediate	test	ward_and_allport	82	18.0	6.636	to_hand	poldrack-single-stim	s593	False
276.594	0.1	0.349	276.943	0	PA_with_intermediate	test	ward_and_allport	71	18.0	0.349	to_board	poldrack-single-stim	s593	False
276.947	0.1	0.456	277.403	0	PA_with_intermediate	test	ward_and_allport	82	18.0	0.456	to_hand	poldrack-single-stim	s593	False
277.404	0.1	0.364	277.768	0	PA_with_intermediate	test	ward_and_allport	89	18.0	0.364	to_board	poldrack-single-stim	s593	False
277.773	0.1	0.546	278.319	0	PA_with_intermediate	test	ward_and_allport	71	18.0	0.546	to_hand	poldrack-single-stim	s593	False
278.32	0.1	0.329	278.649	0	PA_with_intermediate	test	ward_and_allport	89	18.0	0.329	to_board	poldrack-single-stim	s593	False
278.657	1.0	4.04	278.656	0	PA_with_intermediate	test	ward_and_allport	-1	18.0	n/a	feedback	poldrack-single-stim	s593	False
282.702	3.844	3.844	286.546	1	PA_with_intermediate	test	ward_and_allport	71	19.0	3.844	to_hand	poldrack-single-stim	s593	False
286.547	0.1	0.295	286.842	0	PA_with_intermediate	test	ward_and_allport	89	19.0	0.295	to_board	poldrack-single-stim	s593	False
286.846	0.1	0.349	287.195	0	PA_with_intermediate	test	ward_and_allport	71	19.0	0.349	to_hand	poldrack-single-stim	s593	False
287.196	0.1	0.313	287.509	0	PA_with_intermediate	test	ward_and_allport	82	19.0	0.313	to_board	poldrack-single-stim	s593	False
287.514	0.1	0.435	287.949	0	PA_with_intermediate	test	ward_and_allport	89	19.0	0.435	to_hand	poldrack-single-stim	s593	False
287.95	0.1	0.279	288.229	0	PA_with_intermediate	test	ward_and_allport	82	19.0	0.279	to_board	poldrack-single-stim	s593	False
288.234	1.0	2.272	288.233	0	PA_with_intermediate	test	ward_and_allport	-1	19.0	n/a	feedback	poldrack-single-stim	s593	False
290.51	3.688	3.688	294.198	1	PA_with_intermediate	test	ward_and_allport	82	20.0	3.688	to_hand	poldrack-single-stim	s593	False
294.199	0.1	0.35	294.549	0	PA_with_intermediate	test	ward_and_allport	71	20.0	0.35	to_board	poldrack-single-stim	s593	False
294.553	0.1	0.379	294.932	0	PA_with_intermediate	test	ward_and_allport	82	20.0	0.379	to_hand	poldrack-single-stim	s593	False
294.933	0.1	0.348	295.281	0	PA_with_intermediate	test	ward_and_allport	89	20.0	0.348	to_board	poldrack-single-stim	s593	False
295.286	0.1	0.725	296.011	0	PA_with_intermediate	test	ward_and_allport	71	20.0	0.725	to_hand	poldrack-single-stim	s593	False
296.012	0.1	0.287	296.299	0	PA_with_intermediate	test	ward_and_allport	82	20.0	0.287	to_board	poldrack-single-stim	s593	False
296.307	1.0	2.136	296.306	0	PA_with_intermediate	test	ward_and_allport	-1	20.0	n/a	feedback	poldrack-single-stim	s593	False
298.449	3.259	3.259	301.708	1	PA_with_intermediate	test	ward_and_allport	71	21.0	3.259	to_hand	poldrack-single-stim	s593	False
301.709	0.1	0.336	302.045	0	PA_with_intermediate	test	ward_and_allport	82	21.0	0.336	to_board	poldrack-single-stim	s593	False
302.05	0.1	0.668	302.718	0	PA_with_intermediate	test	ward_and_allport	71	21.0	0.668	to_hand	poldrack-single-stim	s593	False
302.719	0.1	0.589	303.308	0	PA_with_intermediate	test	ward_and_allport	89	21.0	0.589	to_board	poldrack-single-stim	s593	False
303.313	0.1	1.031	304.344	0	PA_with_intermediate	test	ward_and_allport	82	21.0	1.031	to_hand	poldrack-single-stim	s593	False
304.345	0.1	0.368	304.713	0	PA_with_intermediate	test	ward_and_allport	71	21.0	0.368	to_board	poldrack-single-stim	s593	False
304.719	1.0	2.0	304.718	0	PA_with_intermediate	test	ward_and_allport	-1	21.0	n/a	feedback	poldrack-single-stim	s593	False
306.723	5.019	5.019	311.742	1	PA_with_intermediate	test	ward_and_allport	89	22.0	5.019	to_hand	poldrack-single-stim	s593	False
311.743	0.1	0.234	311.977	0	PA_with_intermediate	test	ward_and_allport	82	22.0	0.234	to_board	poldrack-single-stim	s593	False
311.983	0.1	0.653	312.636	0	PA_with_intermediate	test	ward_and_allport	89	22.0	0.653	to_hand	poldrack-single-stim	s593	False
312.637	0.1	0.284	312.921	0	PA_with_intermediate	test	ward_and_allport	71	22.0	0.284	to_board	poldrack-single-stim	s593	False
312.927	0.1	0.405	313.332	0	PA_with_intermediate	test	ward_and_allport	82	22.0	0.405	to_hand	poldrack-single-stim	s593	False
313.333	0.1	0.26	313.593	0	PA_with_intermediate	test	ward_and_allport	71	22.0	0.26	to_board	poldrack-single-stim	s593	False
313.599	1.0	2.0	313.598	0	PA_with_intermediate	test	ward_and_allport	-1	22.0	n/a	feedback	poldrack-single-stim	s593	False
315.605	4.516	4.516	320.121	1	PA_without_intermediate	test	ward_and_allport	82	23.0	4.516	to_hand	poldrack-single-stim	s593	False
320.122	0.1	0.35	320.472	0	PA_without_intermediate	test	ward_and_allport	89	23.0	0.35	to_board	poldrack-single-stim	s593	False
320.478	0.1	1.931	322.409	0	PA_without_intermediate	test	ward_and_allport	82	23.0	1.931	to_hand	poldrack-single-stim	s593	False
322.41	0.1	0.284	322.694	0	PA_without_intermediate	test	ward_and_allport	71	23.0	0.284	to_board	poldrack-single-stim	s593	False
322.7	0.1	0.925	323.625	0	PA_without_intermediate	test	ward_and_allport	82	23.0	0.925	to_hand	poldrack-single-stim	s593	False
323.626	0.1	0.268	323.894	0	PA_without_intermediate	test	ward_and_allport	89	23.0	0.268	to_board	poldrack-single-stim	s593	False
323.9	1.0	2.408	323.899	0	PA_without_intermediate	test	ward_and_allport	-1	23.0	n/a	feedback	poldrack-single-stim	s593	False
326.314	3.142	3.142	329.456	1	PA_with_intermediate	test	ward_and_allport	71	24.0	3.142	to_hand	poldrack-single-stim	s593	False
329.457	0.1	0.329	329.786	0	PA_with_intermediate	test	ward_and_allport	82	24.0	0.329	to_board	poldrack-single-stim	s593	False
329.793	0.1	1.26	331.053	0	PA_with_intermediate	test	ward_and_allport	71	24.0	1.26	to_hand	poldrack-single-stim	s593	False
331.054	0.1	0.344	331.398	0	PA_with_intermediate	test	ward_and_allport	89	24.0	0.344	to_board	poldrack-single-stim	s593	False
331.404	0.1	1.375	332.779	0	PA_with_intermediate	test	ward_and_allport	82	24.0	1.375	to_hand	poldrack-single-stim	s593	False
332.78	0.1	0.222	333.002	0	PA_with_intermediate	test	ward_and_allport	89	24.0	0.222	to_board	poldrack-single-stim	s593	False
333.009	1.0	3.768	333.008	0	PA_with_intermediate	test	ward_and_allport	-1	24.0	n/a	feedback	poldrack-single-stim	s593	False
336.784	4.155	4.155	340.939	1	PA_with_intermediate	test	ward_and_allport	82	25.0	4.155	to_hand	poldrack-single-stim	s593	False
340.94	0.1	0.352	341.292	0	PA_with_intermediate	test	ward_and_allport	89	25.0	0.352	to_board	poldrack-single-stim	s593	False
341.298	0.1	0.619	341.917	0	PA_with_intermediate	test	ward_and_allport	82	25.0	0.619	to_hand	poldrack-single-stim	s593	False
341.918	0.1	0.394	342.312	0	PA_with_intermediate	test	ward_and_allport	71	25.0	0.394	to_board	poldrack-single-stim	s593	False
342.318	0.1	0.58	342.898	0	PA_with_intermediate	test	ward_and_allport	89	25.0	0.58	to_hand	poldrack-single-stim	s593	False
342.899	0.1	0.26	343.159	0	PA_with_intermediate	test	ward_and_allport	82	25.0	0.26	to_board	poldrack-single-stim	s593	False
343.169	1.0	2.68	343.168	0	PA_with_intermediate	test	ward_and_allport	-1	25.0	n/a	feedback	poldrack-single-stim	s593	False
345.856	2.816	2.816	348.672	1	PA_without_intermediate	test	ward_and_allport	89	26.0	2.816	to_hand	poldrack-single-stim	s593	False
348.673	0.1	0.334	349.007	0	PA_without_intermediate	test	ward_and_allport	82	26.0	0.334	to_board	poldrack-single-stim	s593	False
349.013	0.1	0.934	349.947	0	PA_without_intermediate	test	ward_and_allport	89	26.0	0.934	to_hand	poldrack-single-stim	s593	False
349.948	0.1	0.288	350.236	0	PA_without_intermediate	test	ward_and_allport	71	26.0	0.288	to_board	poldrack-single-stim	s593	False
350.242	0.1	2.308	352.55	0	PA_without_intermediate	test	ward_and_allport	71	26.0	2.308	to_hand	poldrack-single-stim	s593	False
352.551	0.1	0.355	352.906	0	PA_without_intermediate	test	ward_and_allport	82	26.0	0.355	to_board	poldrack-single-stim	s593	False
352.913	0.1	1.201	354.114	0	PA_without_intermediate	test	ward_and_allport	89	26.0	1.201	to_hand	poldrack-single-stim	s593	False
354.115	0.1	0.245	354.36	0	PA_without_intermediate	test	ward_and_allport	71	26.0	0.245	to_board	poldrack-single-stim	s593	False
354.369	1.0	3.224	354.368	0	PA_without_intermediate	test	ward_and_allport	-1	26.0	n/a	feedback	poldrack-single-stim	s593	False
357.6	6.3	6.3	363.9	1	PA_without_intermediate	test	ward_and_allport	71	27.0	6.3	to_hand	poldrack-single-stim	s593	False
363.901	0.1	0.29	364.191	0	PA_without_intermediate	test	ward_and_allport	82	27.0	0.29	to_board	poldrack-single-stim	s593	False
364.197	0.1	0.47	364.667	0	PA_without_intermediate	test	ward_and_allport	71	27.0	0.47	to_hand	poldrack-single-stim	s593	False
364.668	0.1	0.475	365.143	0	PA_without_intermediate	test	ward_and_allport	82	27.0	0.475	to_board	poldrack-single-stim	s593	False
365.15	0.1	0.69	365.84	0	PA_without_intermediate	test	ward_and_allport	71	27.0	0.69	to_hand	poldrack-single-stim	s593	False
365.841	0.1	0.371	366.212	0	PA_without_intermediate	test	ward_and_allport	89	27.0	0.371	to_board	poldrack-single-stim	s593	False
366.223	1.0	3.36	366.222	0	PA_without_intermediate	test	ward_and_allport	-1	27.0	n/a	feedback	poldrack-single-stim	s593	False
369.592	3.915	3.915	373.507	1	PA_without_intermediate	test	ward_and_allport	71	28.0	3.915	to_hand	poldrack-single-stim	s593	False
373.509	0.1	0.293	373.802	0	PA_without_intermediate	test	ward_and_allport	82	28.0	0.293	to_board	poldrack-single-stim	s593	False
373.808	0.1	0.289	374.097	0	PA_without_intermediate	test	ward_and_allport	71	28.0	0.289	to_hand	poldrack-single-stim	s593	False
374.098	0.1	0.311	374.409	0	PA_without_intermediate	test	ward_and_allport	82	28.0	0.311	to_board	poldrack-single-stim	s593	False
374.416	0.1	0.382	374.798	0	PA_without_intermediate	test	ward_and_allport	71	28.0	0.382	to_hand	poldrack-single-stim	s593	False
374.799	0.1	0.44	375.239	0	PA_without_intermediate	test	ward_and_allport	89	28.0	0.44	to_board	poldrack-single-stim	s593	False
375.247	1.0	2.0	375.246	0	PA_without_intermediate	test	ward_and_allport	-1	28.0	n/a	feedback	poldrack-single-stim	s593	False
377.254	3.095	3.095	380.349	1	PA_without_intermediate	test	ward_and_allport	71	29.0	3.095	to_hand	poldrack-single-stim	s593	False
380.35	0.1	0.38	380.73	0	PA_without_intermediate	test	ward_and_allport	89	29.0	0.38	to_board	poldrack-single-stim	s593	False
380.737	0.1	0.432	381.169	0	PA_without_intermediate	test	ward_and_allport	71	29.0	0.432	to_hand	poldrack-single-stim	s593	False
381.17	0.1	0.353	381.523	0	PA_without_intermediate	test	ward_and_allport	82	29.0	0.353	to_board	poldrack-single-stim	s593	False
381.53	0.1	0.446	381.976	0	PA_without_intermediate	test	ward_and_allport	71	29.0	0.446	to_hand	poldrack-single-stim	s593	False
381.977	0.1	0.27	382.247	0	PA_without_intermediate	test	ward_and_allport	89	29.0	0.27	to_board	poldrack-single-stim	s593	False
382.257	1.0	2.408	382.256	0	PA_without_intermediate	test	ward_and_allport	-1	29.0	n/a	feedback	poldrack-single-stim	s593	False
389.677	3.594	3.594	393.271	1	PA_with_intermediate	test	ward_and_allport	82	30.0	3.594	to_hand	poldrack-single-stim	s593	False
393.272	0.1	0.318	393.59	0	PA_with_intermediate	test	ward_and_allport	89	30.0	0.318	to_board	poldrack-single-stim	s593	False
393.597	0.1	0.496	394.093	0	PA_with_intermediate	test	ward_and_allport	82	30.0	0.496	to_hand	poldrack-single-stim	s593	False
394.094	0.1	0.316	394.41	0	PA_with_intermediate	test	ward_and_allport	71	30.0	0.316	to_board	poldrack-single-stim	s593	False
394.417	0.1	0.73	395.147	0	PA_with_intermediate	test	ward_and_allport	89	30.0	0.73	to_hand	poldrack-single-stim	s593	False
395.148	0.1	0.26	395.408	0	PA_with_intermediate	test	ward_and_allport	82	30.0	0.26	to_board	poldrack-single-stim	s593	False
395.415	1.0	2.136	395.414	0	PA_with_intermediate	test	ward_and_allport	-1	30.0	n/a	feedback	poldrack-single-stim	s593	False
397.558	2.558	2.558	400.116	1	PA_without_intermediate	test	ward_and_allport	82	31.0	2.558	to_hand	poldrack-single-stim	s593	False
400.117	0.1	0.335	400.452	0	PA_without_intermediate	test	ward_and_allport	71	31.0	0.335	to_board	poldrack-single-stim	s593	False
400.46	0.1	0.399	400.859	0	PA_without_intermediate	test	ward_and_allport	82	31.0	0.399	to_hand	poldrack-single-stim	s593	False
400.86	0.1	0.315	401.175	0	PA_without_intermediate	test	ward_and_allport	71	31.0	0.315	to_board	poldrack-single-stim	s593	False
401.183	0.1	0.384	401.567	0	PA_without_intermediate	test	ward_and_allport	82	31.0	0.384	to_hand	poldrack-single-stim	s593	False
401.568	0.1	0.307	401.875	0	PA_without_intermediate	test	ward_and_allport	89	31.0	0.307	to_board	poldrack-single-stim	s593	False
401.884	1.0	5.128	401.883	0	PA_without_intermediate	test	ward_and_allport	-1	31.0	n/a	feedback	poldrack-single-stim	s593	False
407.018	3.12	3.12	410.138	1	PA_without_intermediate	test	ward_and_allport	82	32.0	3.12	to_hand	poldrack-single-stim	s593	False
410.139	0.1	0.336	410.475	0	PA_without_intermediate	test	ward_and_allport	89	32.0	0.336	to_board	poldrack-single-stim	s593	False
410.482	0.1	0.612	411.094	0	PA_without_intermediate	test	ward_and_allport	82	32.0	0.612	to_hand	poldrack-single-stim	s593	False
411.095	0.1	0.522	411.617	0	PA_without_intermediate	test	ward_and_allport	89	32.0	0.522	to_board	poldrack-single-stim	s593	False
411.625	0.1	0.472	412.097	0	PA_without_intermediate	test	ward_and_allport	82	32.0	0.472	to_hand	poldrack-single-stim	s593	False
412.098	0.1	0.316	412.414	0	PA_without_intermediate	test	ward_and_allport	71	32.0	0.316	to_board	poldrack-single-stim	s593	False
412.423	1.0	2.136	412.422	0	PA_without_intermediate	test	ward_and_allport	-1	32.0	n/a	feedback	poldrack-single-stim	s593	False
414.565	3.263	3.263	417.828	1	PA_without_intermediate	test	ward_and_allport	71	33.0	3.263	to_hand	poldrack-single-stim	s593	False
417.828	0.1	0.329	418.157	0	PA_without_intermediate	test	ward_and_allport	82	33.0	0.329	to_board	poldrack-single-stim	s593	False
418.163	0.1	0.315	418.478	0	PA_without_intermediate	test	ward_and_allport	71	33.0	0.315	to_hand	poldrack-single-stim	s593	False
418.479	0.1	0.325	418.804	0	PA_without_intermediate	test	ward_and_allport	89	33.0	0.325	to_board	poldrack-single-stim	s593	False
418.811	0.1	0.46	419.271	0	PA_without_intermediate	test	ward_and_allport	71	33.0	0.46	to_hand	poldrack-single-stim	s593	False
419.272	0.1	0.271	419.543	0	PA_without_intermediate	test	ward_and_allport	82	33.0	0.271	to_board	poldrack-single-stim	s593	False
419.555	1.0	5.264	419.554	0	PA_without_intermediate	test	ward_and_allport	-1	33.0	n/a	feedback	poldrack-single-stim	s593	False
424.827	2.992	2.992	427.819	1	PA_with_intermediate	test	ward_and_allport	89	34.0	2.992	to_hand	poldrack-single-stim	s593	False
427.82	0.1	0.315	428.135	0	PA_with_intermediate	test	ward_and_allport	82	34.0	0.315	to_board	poldrack-single-stim	s593	False
428.142	0.1	0.362	428.504	0	PA_with_intermediate	test	ward_and_allport	89	34.0	0.362	to_hand	poldrack-single-stim	s593	False
428.505	0.1	0.338	428.843	0	PA_with_intermediate	test	ward_and_allport	71	34.0	0.338	to_board	poldrack-single-stim	s593	False
428.852	0.1	1.277	430.129	0	PA_with_intermediate	test	ward_and_allport	82	34.0	1.277	to_hand	poldrack-single-stim	s593	False
430.13	0.1	0.211	430.341	0	PA_with_intermediate	test	ward_and_allport	89	34.0	0.211	to_board	poldrack-single-stim	s593	False
430.354	1.0	4.04	430.353	0	PA_with_intermediate	test	ward_and_allport	-1	34.0	n/a	feedback	poldrack-single-stim	s593	False
434.401	11.327	11.327	445.728	1	PA_with_intermediate	test	ward_and_allport	82	35.0	11.327	to_hand	poldrack-single-stim	s593	False
445.73	0.1	0.334	446.064	0	PA_with_intermediate	test	ward_and_allport	71	35.0	0.334	to_board	poldrack-single-stim	s593	False
446.073	0.1	3.581	449.654	0	PA_with_intermediate	test	ward_and_allport	82	35.0	3.581	to_hand	poldrack-single-stim	s593	False
449.655	0.1	0.253	449.908	0	PA_with_intermediate	test	ward_and_allport	71	35.0	0.253	to_board	poldrack-single-stim	s593	False
449.916	0.1	0.454	450.37	0	PA_with_intermediate	test	ward_and_allport	82	35.0	0.454	to_hand	poldrack-single-stim	s593	False
450.371	0.1	0.522	450.893	0	PA_with_intermediate	test	ward_and_allport	89	35.0	0.522	to_board	poldrack-single-stim	s593	False
450.902	0.1	2.706	453.608	0	PA_with_intermediate	test	ward_and_allport	71	35.0	2.706	to_hand	poldrack-single-stim	s593	False
453.609	0.1	5.514	459.123	0	PA_with_intermediate	test	ward_and_allport	82	35.0	5.514	to_board	poldrack-single-stim	s593	False
459.131	0.1	0.889	460.02	0	PA_with_intermediate	test	ward_and_allport	71	35.0	0.889	to_hand	poldrack-single-stim	s593	False
460.021	0.1	0.66	460.681	0	PA_with_intermediate	test	ward_and_allport	89	35.0	0.66	to_board	poldrack-single-stim	s593	False
460.689	0.1	1.819	462.508	0	PA_with_intermediate	test	ward_and_allport	82	35.0	1.819	to_hand	poldrack-single-stim	s593	False
462.509	0.1	0.324	462.833	0	PA_with_intermediate	test	ward_and_allport	71	35.0	0.324	to_board	poldrack-single-stim	s593	False
462.841	0.1	1.752	464.593	0	PA_with_intermediate	test	ward_and_allport	89	35.0	1.752	to_hand	poldrack-single-stim	s593	False
464.594	0.1	0.899	465.493	0	PA_with_intermediate	test	ward_and_allport	71	35.0	0.899	to_board	poldrack-single-stim	s593	False
465.501	0.1	2.977	468.478	0	PA_with_intermediate	test	ward_and_allport	89	35.0	2.977	to_hand	poldrack-single-stim	s593	False
468.479	0.1	0.298	468.777	0	PA_with_intermediate	test	ward_and_allport	82	35.0	0.298	to_board	poldrack-single-stim	s593	False
468.786	1.0	2.136	468.785	0	PA_with_intermediate	test	ward_and_allport	-1	35.0	n/a	feedback	poldrack-single-stim	s593	False
470.931	3.877	3.877	474.808	1	PA_with_intermediate	test	ward_and_allport	71	36.0	3.877	to_hand	poldrack-single-stim	s593	False
474.81	0.1	0.323	475.133	0	PA_with_intermediate	test	ward_and_allport	89	36.0	0.323	to_board	poldrack-single-stim	s593	False
475.144	0.1	0.306	475.45	0	PA_with_intermediate	test	ward_and_allport	71	36.0	0.306	to_hand	poldrack-single-stim	s593	False
475.451	0.1	0.287	475.738	0	PA_with_intermediate	test	ward_and_allport	82	36.0	0.287	to_board	poldrack-single-stim	s593	False
475.747	0.1	0.581	476.328	0	PA_with_intermediate	test	ward_and_allport	89	36.0	0.581	to_hand	poldrack-single-stim	s593	False
476.33	0.1	0.255	476.585	0	PA_with_intermediate	test	ward_and_allport	71	36.0	0.255	to_board	poldrack-single-stim	s593	False
476.594	1.0	2.408	476.593	0	PA_with_intermediate	test	ward_and_allport	-1	36.0	n/a	feedback	poldrack-single-stim	s593	False
479.008	2.428	2.428	481.436	1	PA_without_intermediate	test	ward_and_allport	82	37.0	2.428	to_hand	poldrack-single-stim	s593	False
481.437	0.1	0.35	481.787	0	PA_without_intermediate	test	ward_and_allport	89	37.0	0.35	to_board	poldrack-single-stim	s593	False
481.793	0.1	2.845	484.638	0	PA_without_intermediate	test	ward_and_allport	82	37.0	2.845	to_hand	poldrack-single-stim	s593	False
484.64	0.1	0.269	484.909	0	PA_without_intermediate	test	ward_and_allport	89	37.0	0.269	to_board	poldrack-single-stim	s593	False
484.918	0.1	0.408	485.326	0	PA_without_intermediate	test	ward_and_allport	82	37.0	0.408	to_hand	poldrack-single-stim	s593	False
485.327	0.1	0.265	485.592	0	PA_without_intermediate	test	ward_and_allport	71	37.0	0.265	to_board	poldrack-single-stim	s593	False
485.602	1.0	2.68	485.601	0	PA_without_intermediate	test	ward_and_allport	-1	37.0	n/a	feedback	poldrack-single-stim	s593	False
488.289	4.268	4.268	492.557	1	PA_with_intermediate	test	ward_and_allport	82	38.0	4.268	to_hand	poldrack-single-stim	s593	False
492.558	0.1	0.255	492.813	0	PA_with_intermediate	test	ward_and_allport	71	38.0	0.255	to_board	poldrack-single-stim	s593	False
492.82	0.1	0.283	493.103	0	PA_with_intermediate	test	ward_and_allport	82	38.0	0.283	to_hand	poldrack-single-stim	s593	False
493.104	0.1	0.261	493.365	0	PA_with_intermediate	test	ward_and_allport	89	38.0	0.261	to_board	poldrack-single-stim	s593	False
493.375	0.1	0.57	493.945	0	PA_with_intermediate	test	ward_and_allport	71	38.0	0.57	to_hand	poldrack-single-stim	s593	False
493.947	0.1	0.181	494.128	0	PA_with_intermediate	test	ward_and_allport	89	38.0	0.181	to_board	poldrack-single-stim	s593	False
494.138	1.0	4.72	494.137	0	PA_with_intermediate	test	ward_and_allport	-1	38.0	n/a	feedback	poldrack-single-stim	s593	False
498.866	3.197	3.197	502.063	1	PA_without_intermediate	test	ward_and_allport	89	39.0	3.197	to_hand	poldrack-single-stim	s593	False
502.064	0.1	0.267	502.331	0	PA_without_intermediate	test	ward_and_allport	82	39.0	0.267	to_board	poldrack-single-stim	s593	False
502.34	0.1	0.251	502.591	0	PA_without_intermediate	test	ward_and_allport	89	39.0	0.251	to_hand	poldrack-single-stim	s593	False
502.592	0.1	0.254	502.846	0	PA_without_intermediate	test	ward_and_allport	71	39.0	0.254	to_board	poldrack-single-stim	s593	False
502.856	0.1	0.273	503.129	0	PA_without_intermediate	test	ward_and_allport	89	39.0	0.273	to_hand	poldrack-single-stim	s593	False
503.13	0.1	0.216	503.346	0	PA_without_intermediate	test	ward_and_allport	82	39.0	0.216	to_board	poldrack-single-stim	s593	False
503.356	1.0	3.224	503.355	0	PA_without_intermediate	test	ward_and_allport	-1	39.0	n/a	feedback	poldrack-single-stim	s593	False
506.585	3.203	3.203	509.788	1	PA_without_intermediate	test	ward_and_allport	71	40.0	3.203	to_hand	poldrack-single-stim	s593	False
509.79	0.1	0.283	510.073	0	PA_without_intermediate	test	ward_and_allport	89	40.0	0.283	to_board	poldrack-single-stim	s593	False
510.079	0.1	0.32	510.399	0	PA_without_intermediate	test	ward_and_allport	71	40.0	0.32	to_hand	poldrack-single-stim	s593	False
510.4	0.1	0.262	510.662	0	PA_without_intermediate	test	ward_and_allport	82	40.0	0.262	to_board	poldrack-single-stim	s593	False
510.671	0.1	0.284	510.955	0	PA_without_intermediate	test	ward_and_allport	71	40.0	0.284	to_hand	poldrack-single-stim	s593	False
510.956	0.1	0.221	511.177	0	PA_without_intermediate	test	ward_and_allport	89	40.0	0.221	to_board	poldrack-single-stim	s593	False
511.191	1.0	2.272	511.19	0	PA_without_intermediate	test	ward_and_allport	-1	40.0	n/a	feedback	poldrack-single-stim	s593	False
513.47	6.23	6.23	519.7	1	PA_with_intermediate	test	ward_and_allport	71	41.0	6.23	to_hand	poldrack-single-stim	s593	False
519.7	0.1	0.26	519.96	0	PA_with_intermediate	test	ward_and_allport	82	41.0	0.26	to_board	poldrack-single-stim	s593	False
519.969	0.1	0.252	520.221	0	PA_with_intermediate	test	ward_and_allport	71	41.0	0.252	to_hand	poldrack-single-stim	s593	False
520.222	0.1	0.268	520.49	0	PA_with_intermediate	test	ward_and_allport	89	41.0	0.268	to_board	poldrack-single-stim	s593	False
520.499	0.1	0.244	520.743	0	PA_with_intermediate	test	ward_and_allport	82	41.0	0.244	to_hand	poldrack-single-stim	s593	False
520.743	0.1	0.222	520.965	0	PA_with_intermediate	test	ward_and_allport	89	41.0	0.222	to_board	poldrack-single-stim	s593	False
520.975	1.0	3.632	520.974	0	PA_with_intermediate	test	ward_and_allport	-1	41.0	n/a	feedback	poldrack-single-stim	s593	False
524.616	5.506	5.506	530.122	1	PA_without_intermediate	test	ward_and_allport	71	42.0	5.506	to_hand	poldrack-single-stim	s593	False
530.123	0.1	0.323	530.446	0	PA_without_intermediate	test	ward_and_allport	89	42.0	0.323	to_board	poldrack-single-stim	s593	False
530.455	0.1	0.292	530.747	0	PA_without_intermediate	test	ward_and_allport	71	42.0	0.292	to_hand	poldrack-single-stim	s593	False
530.748	0.1	0.254	531.002	0	PA_without_intermediate	test	ward_and_allport	89	42.0	0.254	to_board	poldrack-single-stim	s593	False
531.013	0.1	0.266	531.279	0	PA_without_intermediate	test	ward_and_allport	71	42.0	0.266	to_hand	poldrack-single-stim	s593	False
531.28	0.1	0.276	531.556	0	PA_without_intermediate	test	ward_and_allport	82	42.0	0.276	to_board	poldrack-single-stim	s593	False
531.569	1.0	2.408	531.568	0	PA_without_intermediate	test	ward_and_allport	-1	42.0	n/a	feedback	poldrack-single-stim	s593	False
533.986	3.093	3.093	537.079	1	PA_without_intermediate	test	ward_and_allport	71	43.0	3.093	to_hand	poldrack-single-stim	s593	False
537.08	0.1	0.435	537.515	0	PA_without_intermediate	test	ward_and_allport	89	43.0	0.435	to_board	poldrack-single-stim	s593	False
537.522	0.1	0.257	537.779	0	PA_without_intermediate	test	ward_and_allport	71	43.0	0.257	to_hand	poldrack-single-stim	s593	False
537.78	0.1	0.27	538.05	0	PA_without_intermediate	test	ward_and_allport	89	43.0	0.27	to_board	poldrack-single-stim	s593	False
538.058	0.1	0.269	538.327	0	PA_without_intermediate	test	ward_and_allport	71	43.0	0.269	to_hand	poldrack-single-stim	s593	False
538.328	0.1	0.253	538.581	0	PA_without_intermediate	test	ward_and_allport	82	43.0	0.253	to_board	poldrack-single-stim	s593	False
538.589	1.0	2.0	538.588	0	PA_without_intermediate	test	ward_and_allport	-1	43.0	n/a	feedback	poldrack-single-stim	s593	False
540.597	5.259	5.259	545.856	1	PA_with_intermediate	test	ward_and_allport	82	44.0	5.259	to_hand	poldrack-single-stim	s593	False
545.857	0.1	0.259	546.116	0	PA_with_intermediate	test	ward_and_allport	71	44.0	0.259	to_board	poldrack-single-stim	s593	False
546.123	0.1	0.56	546.683	0	PA_with_intermediate	test	ward_and_allport	82	44.0	0.56	to_hand	poldrack-single-stim	s593	False
546.684	0.1	0.248	546.932	0	PA_with_intermediate	test	ward_and_allport	89	44.0	0.248	to_board	poldrack-single-stim	s593	False
546.939	0.1	0.623	547.562	0	PA_with_intermediate	test	ward_and_allport	71	44.0	0.623	to_hand	poldrack-single-stim	s593	False
547.563	0.1	0.441	548.004	0	PA_with_intermediate	test	ward_and_allport	82	44.0	0.441	to_board	poldrack-single-stim	s593	False
548.015	1.0	2.0	548.014	0	PA_with_intermediate	test	ward_and_allport	-1	44.0	n/a	feedback	poldrack-single-stim	s593	False
555.028	12.371	12.371	567.399	1	PA_with_intermediate	test	ward_and_allport	89	45.0	12.371	to_hand	poldrack-single-stim	s593	False
567.4	0.1	0.271	567.671	0	PA_with_intermediate	test	ward_and_allport	71	45.0	0.271	to_board	poldrack-single-stim	s593	False
567.682	0.1	0.283	567.965	0	PA_with_intermediate	test	ward_and_allport	89	45.0	0.283	to_hand	poldrack-single-stim	s593	False
567.966	0.1	0.446	568.412	0	PA_with_intermediate	test	ward_and_allport	82	45.0	0.446	to_board	poldrack-single-stim	s593	False
568.422	0.1	1.064	569.486	0	PA_with_intermediate	test	ward_and_allport	71	45.0	1.064	to_hand	poldrack-single-stim	s593	False
569.487	0.1	0.244	569.731	0	PA_with_intermediate	test	ward_and_allport	82	45.0	0.244	to_board	poldrack-single-stim	s593	False
569.745	1.0	2.0	569.744	0	PA_with_intermediate	test	ward_and_allport	-1	45.0	n/a	feedback	poldrack-single-stim	s593	False
