onset	duration	block_duration	movement_onset	planning	condition	exp_stage	experiment_exp_id	key_press	problem_id	response_time	trial_id	trial_type	worker_id	junk
3.008	4.183	4.183	7.191	1	UA_with_intermediate	practice	ward_and_allport	71	0.0	4.183	to_hand	poldrack-single-stim	s546	False
7.192	0.1	1.468	8.66	0	UA_with_intermediate	practice	ward_and_allport	82	0.0	1.468	to_board	poldrack-single-stim	s546	False
8.663	0.1	0.419	9.082	0	UA_with_intermediate	practice	ward_and_allport	71	0.0	0.419	to_hand	poldrack-single-stim	s546	False
9.084	0.1	0.83	9.914	0	UA_with_intermediate	practice	ward_and_allport	89	0.0	0.83	to_board	poldrack-single-stim	s546	False
9.915	0.1	0.525	10.44	0	UA_with_intermediate	practice	ward_and_allport	82	0.0	0.525	to_hand	poldrack-single-stim	s546	False
10.441	0.1	0.677	11.118	0	UA_with_intermediate	practice	ward_and_allport	89	0.0	0.677	to_board	poldrack-single-stim	s546	False
11.121	1.0	2.5	11.12	0	UA_with_intermediate	practice	ward_and_allport	-1	0.0	n/a	feedback	poldrack-single-stim	s546	False
13.623	4.413	4.413	18.036	1	UA_with_intermediate	practice	ward_and_allport	89	1.0	4.413	to_hand	poldrack-single-stim	s546	False
18.036	0.1	1.101	19.137	0	UA_with_intermediate	practice	ward_and_allport	82	1.0	1.101	to_board	poldrack-single-stim	s546	False
19.138	0.1	0.61	19.748	0	UA_with_intermediate	practice	ward_and_allport	71	1.0	0.61	to_hand	poldrack-single-stim	s546	False
19.75	0.1	0.743	20.493	0	UA_with_intermediate	practice	ward_and_allport	89	1.0	0.743	to_board	poldrack-single-stim	s546	False
20.494	0.1	0.532	21.026	0	UA_with_intermediate	practice	ward_and_allport	82	1.0	0.532	to_hand	poldrack-single-stim	s546	False
21.026	0.1	0.442	21.468	0	UA_with_intermediate	practice	ward_and_allport	89	1.0	0.442	to_board	poldrack-single-stim	s546	False
21.471	1.0	2.1	21.47	0	UA_with_intermediate	practice	ward_and_allport	-1	1.0	n/a	feedback	poldrack-single-stim	s546	False
23.572	4.095	4.095	27.667	1	UA_without_intermediate	practice	ward_and_allport	82	2.0	4.095	to_hand	poldrack-single-stim	s546	False
27.669	0.1	0.45	28.119	0	UA_without_intermediate	practice	ward_and_allport	89	2.0	0.45	to_board	poldrack-single-stim	s546	False
28.121	0.1	0.877	28.998	0	UA_without_intermediate	practice	ward_and_allport	71	2.0	0.877	to_hand	poldrack-single-stim	s546	False
28.999	0.1	0.492	29.491	0	UA_without_intermediate	practice	ward_and_allport	89	2.0	0.492	to_board	poldrack-single-stim	s546	False
29.493	0.1	0.909	30.402	0	UA_without_intermediate	practice	ward_and_allport	71	2.0	0.909	to_hand	poldrack-single-stim	s546	False
30.402	0.1	0.38	30.782	0	UA_without_intermediate	practice	ward_and_allport	89	2.0	0.38	to_board	poldrack-single-stim	s546	False
30.785	1.0	2.2	30.784	0	UA_without_intermediate	practice	ward_and_allport	-1	2.0	n/a	feedback	poldrack-single-stim	s546	False
32.988	4.684	4.684	37.672	1	UA_without_intermediate	practice	ward_and_allport	71	3.0	4.684	to_hand	poldrack-single-stim	s546	False
37.673	0.1	0.515	38.188	0	UA_without_intermediate	practice	ward_and_allport	89	3.0	0.515	to_board	poldrack-single-stim	s546	False
38.19	0.1	0.732	38.922	0	UA_without_intermediate	practice	ward_and_allport	82	3.0	0.732	to_hand	poldrack-single-stim	s546	False
38.923	0.1	0.431	39.354	0	UA_without_intermediate	practice	ward_and_allport	89	3.0	0.431	to_board	poldrack-single-stim	s546	False
39.357	0.1	0.415	39.772	0	UA_without_intermediate	practice	ward_and_allport	71	3.0	0.415	to_hand	poldrack-single-stim	s546	False
39.773	0.1	0.364	40.137	0	UA_without_intermediate	practice	ward_and_allport	89	3.0	0.364	to_board	poldrack-single-stim	s546	False
40.14	1.0	2.0	40.139	0	UA_without_intermediate	practice	ward_and_allport	-1	3.0	n/a	feedback	poldrack-single-stim	s546	False
44.147	5.591	5.591	49.738	1	PA_with_intermediate	test	ward_and_allport	89	0.0	5.591	to_hand	poldrack-single-stim	s546	False
49.738	0.1	0.782	50.52	0	PA_with_intermediate	test	ward_and_allport	82	0.0	0.782	to_board	poldrack-single-stim	s546	False
50.523	0.1	1.933	52.456	0	PA_with_intermediate	test	ward_and_allport	89	0.0	1.933	to_hand	poldrack-single-stim	s546	False
52.456	0.1	0.451	52.907	0	PA_with_intermediate	test	ward_and_allport	71	0.0	0.451	to_board	poldrack-single-stim	s546	False
52.909	0.1	1.374	54.283	0	PA_with_intermediate	test	ward_and_allport	82	0.0	1.374	to_hand	poldrack-single-stim	s546	False
54.284	0.1	0.772	55.056	0	PA_with_intermediate	test	ward_and_allport	71	0.0	0.772	to_board	poldrack-single-stim	s546	False
55.059	1.0	2.408	55.058	0	PA_with_intermediate	test	ward_and_allport	-1	0.0	n/a	feedback	poldrack-single-stim	s546	False
57.469	5.236	5.236	62.705	1	PA_without_intermediate	test	ward_and_allport	82	1.0	5.236	to_hand	poldrack-single-stim	s546	False
62.707	0.1	0.625	63.332	0	PA_without_intermediate	test	ward_and_allport	89	1.0	0.625	to_board	poldrack-single-stim	s546	False
63.334	0.1	1.523	64.857	0	PA_without_intermediate	test	ward_and_allport	82	1.0	1.523	to_hand	poldrack-single-stim	s546	False
64.858	0.1	0.678	65.536	0	PA_without_intermediate	test	ward_and_allport	71	1.0	0.678	to_board	poldrack-single-stim	s546	False
65.537	0.1	0.728	66.265	0	PA_without_intermediate	test	ward_and_allport	82	1.0	0.728	to_hand	poldrack-single-stim	s546	False
66.267	0.1	0.508	66.775	0	PA_without_intermediate	test	ward_and_allport	89	1.0	0.508	to_board	poldrack-single-stim	s546	False
66.778	1.0	2.68	66.777	0	PA_without_intermediate	test	ward_and_allport	-1	1.0	n/a	feedback	poldrack-single-stim	s546	False
69.46	4.961	4.961	74.421	1	PA_with_intermediate	test	ward_and_allport	82	2.0	4.961	to_hand	poldrack-single-stim	s546	False
74.421	0.1	0.631	75.052	0	PA_with_intermediate	test	ward_and_allport	71	2.0	0.631	to_board	poldrack-single-stim	s546	False
75.056	0.1	1.152	76.208	0	PA_with_intermediate	test	ward_and_allport	82	2.0	1.152	to_hand	poldrack-single-stim	s546	False
76.209	0.1	0.43	76.639	0	PA_with_intermediate	test	ward_and_allport	89	2.0	0.43	to_board	poldrack-single-stim	s546	False
76.64	0.1	0.415	77.055	0	PA_with_intermediate	test	ward_and_allport	71	2.0	0.415	to_hand	poldrack-single-stim	s546	False
77.056	0.1	0.397	77.453	0	PA_with_intermediate	test	ward_and_allport	89	2.0	0.397	to_board	poldrack-single-stim	s546	False
77.457	1.0	4.72	77.456	0	PA_with_intermediate	test	ward_and_allport	-1	2.0	n/a	feedback	poldrack-single-stim	s546	False
82.179	4.7	4.7	86.879	1	PA_without_intermediate	test	ward_and_allport	82	3.0	4.7	to_hand	poldrack-single-stim	s546	False
86.88	0.1	0.9	87.78	0	PA_without_intermediate	test	ward_and_allport	71	3.0	0.9	to_board	poldrack-single-stim	s546	False
87.781	0.1	1.098	88.879	0	PA_without_intermediate	test	ward_and_allport	82	3.0	1.098	to_hand	poldrack-single-stim	s546	False
88.881	0.1	0.473	89.354	0	PA_without_intermediate	test	ward_and_allport	89	3.0	0.473	to_board	poldrack-single-stim	s546	False
89.357	0.1	1.307	90.664	0	PA_without_intermediate	test	ward_and_allport	82	3.0	1.307	to_hand	poldrack-single-stim	s546	False
90.665	0.1	0.801	91.466	0	PA_without_intermediate	test	ward_and_allport	71	3.0	0.801	to_board	poldrack-single-stim	s546	False
91.47	1.0	3.224	91.469	0	PA_without_intermediate	test	ward_and_allport	-1	3.0	n/a	feedback	poldrack-single-stim	s546	False
94.697	4.715	4.715	99.412	1	PA_without_intermediate	test	ward_and_allport	71	4.0	4.715	to_hand	poldrack-single-stim	s546	False
99.414	0.1	0.656	100.07	0	PA_without_intermediate	test	ward_and_allport	82	4.0	0.656	to_board	poldrack-single-stim	s546	False
100.073	0.1	0.921	100.994	0	PA_without_intermediate	test	ward_and_allport	71	4.0	0.921	to_hand	poldrack-single-stim	s546	False
100.995	0.1	0.504	101.499	0	PA_without_intermediate	test	ward_and_allport	89	4.0	0.504	to_board	poldrack-single-stim	s546	False
101.501	0.1	0.739	102.24	0	PA_without_intermediate	test	ward_and_allport	71	4.0	0.739	to_hand	poldrack-single-stim	s546	False
102.241	0.1	0.453	102.694	0	PA_without_intermediate	test	ward_and_allport	82	4.0	0.453	to_board	poldrack-single-stim	s546	False
102.697	1.0	2.272	102.696	0	PA_without_intermediate	test	ward_and_allport	-1	4.0	n/a	feedback	poldrack-single-stim	s546	False
104.972	5.358	5.358	110.33	1	PA_with_intermediate	test	ward_and_allport	89	5.0	5.358	to_hand	poldrack-single-stim	s546	False
110.331	0.1	0.382	110.713	0	PA_with_intermediate	test	ward_and_allport	71	5.0	0.382	to_board	poldrack-single-stim	s546	False
110.716	0.1	0.842	111.558	0	PA_with_intermediate	test	ward_and_allport	89	5.0	0.842	to_hand	poldrack-single-stim	s546	False
111.559	0.1	0.591	112.15	0	PA_with_intermediate	test	ward_and_allport	82	5.0	0.591	to_board	poldrack-single-stim	s546	False
112.152	0.1	0.859	113.011	0	PA_with_intermediate	test	ward_and_allport	71	5.0	0.859	to_hand	poldrack-single-stim	s546	False
113.013	0.1	0.438	113.451	0	PA_with_intermediate	test	ward_and_allport	89	5.0	0.438	to_board	poldrack-single-stim	s546	False
113.455	1.0	3.632	113.454	0	PA_with_intermediate	test	ward_and_allport	-1	5.0	n/a	feedback	poldrack-single-stim	s546	False
117.09	6.924	6.924	124.014	1	PA_without_intermediate	test	ward_and_allport	89	6.0	6.924	to_hand	poldrack-single-stim	s546	False
124.014	0.1	0.935	124.949	0	PA_without_intermediate	test	ward_and_allport	71	6.0	0.935	to_board	poldrack-single-stim	s546	False
124.953	0.1	0.869	125.822	0	PA_without_intermediate	test	ward_and_allport	89	6.0	0.869	to_hand	poldrack-single-stim	s546	False
125.822	0.1	0.598	126.42	0	PA_without_intermediate	test	ward_and_allport	82	6.0	0.598	to_board	poldrack-single-stim	s546	False
126.422	0.1	0.777	127.199	0	PA_without_intermediate	test	ward_and_allport	89	6.0	0.777	to_hand	poldrack-single-stim	s546	False
127.201	0.1	0.428	127.629	0	PA_without_intermediate	test	ward_and_allport	71	6.0	0.428	to_board	poldrack-single-stim	s546	False
127.634	1.0	2.408	127.633	0	PA_without_intermediate	test	ward_and_allport	-1	6.0	n/a	feedback	poldrack-single-stim	s546	False
130.044	4.421	4.421	134.465	1	PA_without_intermediate	test	ward_and_allport	71	7.0	4.421	to_hand	poldrack-single-stim	s546	False
134.467	0.1	0.53	134.997	0	PA_without_intermediate	test	ward_and_allport	89	7.0	0.53	to_board	poldrack-single-stim	s546	False
134.999	0.1	0.808	135.807	0	PA_without_intermediate	test	ward_and_allport	71	7.0	0.808	to_hand	poldrack-single-stim	s546	False
135.809	0.1	0.368	136.177	0	PA_without_intermediate	test	ward_and_allport	89	7.0	0.368	to_board	poldrack-single-stim	s546	False
136.181	0.1	0.597	136.778	0	PA_without_intermediate	test	ward_and_allport	71	7.0	0.597	to_hand	poldrack-single-stim	s546	False
136.779	0.1	0.353	137.132	0	PA_without_intermediate	test	ward_and_allport	82	7.0	0.353	to_board	poldrack-single-stim	s546	False
137.136	1.0	2.0	137.135	0	PA_without_intermediate	test	ward_and_allport	-1	7.0	n/a	feedback	poldrack-single-stim	s546	False
139.139	9.023	9.023	148.162	1	PA_with_intermediate	test	ward_and_allport	82	8.0	9.023	to_hand	poldrack-single-stim	s546	False
148.163	0.1	0.662	148.825	0	PA_with_intermediate	test	ward_and_allport	89	8.0	0.662	to_board	poldrack-single-stim	s546	False
148.828	0.1	1.508	150.336	0	PA_with_intermediate	test	ward_and_allport	82	8.0	1.508	to_hand	poldrack-single-stim	s546	False
150.338	0.1	0.526	150.864	0	PA_with_intermediate	test	ward_and_allport	89	8.0	0.526	to_board	poldrack-single-stim	s546	False
150.867	0.1	2.196	153.063	0	PA_with_intermediate	test	ward_and_allport	89	8.0	2.196	to_hand	poldrack-single-stim	s546	False
153.063	0.1	0.415	153.478	0	PA_with_intermediate	test	ward_and_allport	71	8.0	0.415	to_board	poldrack-single-stim	s546	False
153.482	0.1	0.719	154.201	0	PA_with_intermediate	test	ward_and_allport	89	8.0	0.719	to_hand	poldrack-single-stim	s546	False
154.202	0.1	0.387	154.589	0	PA_with_intermediate	test	ward_and_allport	71	8.0	0.387	to_board	poldrack-single-stim	s546	False
154.593	1.0	2.0	154.592	0	PA_with_intermediate	test	ward_and_allport	-1	8.0	n/a	feedback	poldrack-single-stim	s546	False
156.596	9.288	9.288	165.884	1	PA_with_intermediate	test	ward_and_allport	89	9.0	9.288	to_hand	poldrack-single-stim	s546	False
165.885	0.1	0.538	166.423	0	PA_with_intermediate	test	ward_and_allport	82	9.0	0.538	to_board	poldrack-single-stim	s546	False
166.426	0.1	0.59	167.016	0	PA_with_intermediate	test	ward_and_allport	89	9.0	0.59	to_hand	poldrack-single-stim	s546	False
167.016	0.1	0.458	167.474	0	PA_with_intermediate	test	ward_and_allport	71	9.0	0.458	to_board	poldrack-single-stim	s546	False
167.478	0.1	1.178	168.656	0	PA_with_intermediate	test	ward_and_allport	82	9.0	1.178	to_hand	poldrack-single-stim	s546	False
168.657	0.1	0.38	169.037	0	PA_with_intermediate	test	ward_and_allport	89	9.0	0.38	to_board	poldrack-single-stim	s546	False
169.041	1.0	2.0	169.04	0	PA_with_intermediate	test	ward_and_allport	-1	9.0	n/a	feedback	poldrack-single-stim	s546	False
171.045	4.824	4.824	175.869	1	PA_with_intermediate	test	ward_and_allport	82	10.0	4.824	to_hand	poldrack-single-stim	s546	False
175.87	0.1	0.645	176.515	0	PA_with_intermediate	test	ward_and_allport	71	10.0	0.645	to_board	poldrack-single-stim	s546	False
176.519	0.1	0.853	177.372	0	PA_with_intermediate	test	ward_and_allport	82	10.0	0.853	to_hand	poldrack-single-stim	s546	False
177.374	0.1	0.41	177.784	0	PA_with_intermediate	test	ward_and_allport	89	10.0	0.41	to_board	poldrack-single-stim	s546	False
177.788	0.1	0.57	178.358	0	PA_with_intermediate	test	ward_and_allport	71	10.0	0.57	to_hand	poldrack-single-stim	s546	False
178.359	0.1	0.454	178.813	0	PA_with_intermediate	test	ward_and_allport	82	10.0	0.454	to_board	poldrack-single-stim	s546	False
178.819	1.0	2.408	178.818	0	PA_with_intermediate	test	ward_and_allport	-1	10.0	n/a	feedback	poldrack-single-stim	s546	False
181.232	5.173	5.173	186.405	1	PA_without_intermediate	test	ward_and_allport	89	11.0	5.173	to_hand	poldrack-single-stim	s546	False
186.405	0.1	0.532	186.937	0	PA_without_intermediate	test	ward_and_allport	82	11.0	0.532	to_board	poldrack-single-stim	s546	False
186.941	0.1	0.848	187.789	0	PA_without_intermediate	test	ward_and_allport	89	11.0	0.848	to_hand	poldrack-single-stim	s546	False
187.79	0.1	0.431	188.221	0	PA_without_intermediate	test	ward_and_allport	82	11.0	0.431	to_board	poldrack-single-stim	s546	False
188.225	0.1	0.708	188.933	0	PA_without_intermediate	test	ward_and_allport	89	11.0	0.708	to_hand	poldrack-single-stim	s546	False
188.934	0.1	0.274	189.208	0	PA_without_intermediate	test	ward_and_allport	71	11.0	0.274	to_board	poldrack-single-stim	s546	False
189.214	1.0	2.816	189.213	0	PA_without_intermediate	test	ward_and_allport	-1	11.0	n/a	feedback	poldrack-single-stim	s546	False
192.035	5.358	5.358	197.393	1	PA_with_intermediate	test	ward_and_allport	71	12.0	5.358	to_hand	poldrack-single-stim	s546	False
197.395	0.1	0.584	197.979	0	PA_with_intermediate	test	ward_and_allport	89	12.0	0.584	to_board	poldrack-single-stim	s546	False
197.983	0.1	0.458	198.441	0	PA_with_intermediate	test	ward_and_allport	71	12.0	0.458	to_hand	poldrack-single-stim	s546	False
198.442	0.1	0.5	198.942	0	PA_with_intermediate	test	ward_and_allport	82	12.0	0.5	to_board	poldrack-single-stim	s546	False
198.947	0.1	0.868	199.815	0	PA_with_intermediate	test	ward_and_allport	89	12.0	0.868	to_hand	poldrack-single-stim	s546	False
199.816	0.1	0.354	200.17	0	PA_with_intermediate	test	ward_and_allport	71	12.0	0.354	to_board	poldrack-single-stim	s546	False
200.175	1.0	4.176	200.174	0	PA_with_intermediate	test	ward_and_allport	-1	12.0	n/a	feedback	poldrack-single-stim	s546	False
204.356	7.579	7.579	211.935	1	PA_with_intermediate	test	ward_and_allport	89	13.0	7.579	to_hand	poldrack-single-stim	s546	False
211.937	0.1	0.526	212.463	0	PA_with_intermediate	test	ward_and_allport	71	13.0	0.526	to_board	poldrack-single-stim	s546	False
212.467	0.1	1.473	213.94	0	PA_with_intermediate	test	ward_and_allport	89	13.0	1.473	to_hand	poldrack-single-stim	s546	False
213.941	0.1	0.932	214.873	0	PA_with_intermediate	test	ward_and_allport	82	13.0	0.932	to_board	poldrack-single-stim	s546	False
214.877	0.1	1.586	216.463	0	PA_with_intermediate	test	ward_and_allport	71	13.0	1.586	to_hand	poldrack-single-stim	s546	False
216.464	0.1	0.856	217.32	0	PA_with_intermediate	test	ward_and_allport	82	13.0	0.856	to_board	poldrack-single-stim	s546	False
217.326	1.0	3.36	217.325	0	PA_with_intermediate	test	ward_and_allport	-1	13.0	n/a	feedback	poldrack-single-stim	s546	False
220.69	11.492	11.492	232.182	1	PA_with_intermediate	test	ward_and_allport	82	14.0	11.492	to_hand	poldrack-single-stim	s546	False
232.183	0.1	2.725	234.908	0	PA_with_intermediate	test	ward_and_allport	89	14.0	2.725	to_board	poldrack-single-stim	s546	False
234.913	0.1	0.724	235.637	0	PA_with_intermediate	test	ward_and_allport	82	14.0	0.724	to_hand	poldrack-single-stim	s546	False
235.637	0.1	0.463	236.1	0	PA_with_intermediate	test	ward_and_allport	71	14.0	0.463	to_board	poldrack-single-stim	s546	False
236.103	0.1	1.115	237.218	0	PA_with_intermediate	test	ward_and_allport	89	14.0	1.115	to_hand	poldrack-single-stim	s546	False
237.22	0.1	0.437	237.657	0	PA_with_intermediate	test	ward_and_allport	82	14.0	0.437	to_board	poldrack-single-stim	s546	False
237.662	1.0	2.0	237.661	0	PA_with_intermediate	test	ward_and_allport	-1	14.0	n/a	feedback	poldrack-single-stim	s546	False
244.668	8.644	8.644	253.312	1	PA_without_intermediate	test	ward_and_allport	82	15.0	8.644	to_hand	poldrack-single-stim	s546	False
253.313	0.1	0.39	253.703	0	PA_without_intermediate	test	ward_and_allport	89	15.0	0.39	to_board	poldrack-single-stim	s546	False
253.708	0.1	0.996	254.704	0	PA_without_intermediate	test	ward_and_allport	82	15.0	0.996	to_hand	poldrack-single-stim	s546	False
254.705	0.1	0.426	255.131	0	PA_without_intermediate	test	ward_and_allport	71	15.0	0.426	to_board	poldrack-single-stim	s546	False
255.136	0.1	0.585	255.721	0	PA_without_intermediate	test	ward_and_allport	82	15.0	0.585	to_hand	poldrack-single-stim	s546	False
255.722	0.1	0.24	255.962	0	PA_without_intermediate	test	ward_and_allport	89	15.0	0.24	to_board	poldrack-single-stim	s546	False
255.967	1.0	2.408	255.966	0	PA_without_intermediate	test	ward_and_allport	-1	15.0	n/a	feedback	poldrack-single-stim	s546	False
258.379	6.206	6.206	264.585	1	PA_with_intermediate	test	ward_and_allport	71	16.0	6.206	to_hand	poldrack-single-stim	s546	False
264.587	0.1	0.365	264.952	0	PA_with_intermediate	test	ward_and_allport	89	16.0	0.365	to_board	poldrack-single-stim	s546	False
264.956	0.1	0.61	265.566	0	PA_with_intermediate	test	ward_and_allport	71	16.0	0.61	to_hand	poldrack-single-stim	s546	False
265.567	0.1	0.372	265.939	0	PA_with_intermediate	test	ward_and_allport	82	16.0	0.372	to_board	poldrack-single-stim	s546	False
265.944	0.1	0.888	266.832	0	PA_with_intermediate	test	ward_and_allport	89	16.0	0.888	to_hand	poldrack-single-stim	s546	False
266.832	0.1	0.41	267.242	0	PA_with_intermediate	test	ward_and_allport	82	16.0	0.41	to_board	poldrack-single-stim	s546	False
267.247	1.0	2.816	267.246	0	PA_with_intermediate	test	ward_and_allport	-1	16.0	n/a	feedback	poldrack-single-stim	s546	False
270.067	8.074	8.074	278.141	1	PA_without_intermediate	test	ward_and_allport	89	17.0	8.074	to_hand	poldrack-single-stim	s546	False
278.143	0.1	0.257	278.4	0	PA_without_intermediate	test	ward_and_allport	71	17.0	0.257	to_board	poldrack-single-stim	s546	False
278.405	0.1	1.165	279.57	0	PA_without_intermediate	test	ward_and_allport	89	17.0	1.165	to_hand	poldrack-single-stim	s546	False
279.571	0.1	0.281	279.852	0	PA_without_intermediate	test	ward_and_allport	71	17.0	0.281	to_board	poldrack-single-stim	s546	False
279.857	0.1	0.607	280.464	0	PA_without_intermediate	test	ward_and_allport	89	17.0	0.607	to_hand	poldrack-single-stim	s546	False
280.464	0.1	0.249	280.713	0	PA_without_intermediate	test	ward_and_allport	82	17.0	0.249	to_board	poldrack-single-stim	s546	False
280.72	1.0	3.088	280.719	0	PA_without_intermediate	test	ward_and_allport	-1	17.0	n/a	feedback	poldrack-single-stim	s546	False
283.812	6.368	6.368	290.18	1	PA_without_intermediate	test	ward_and_allport	89	18.0	6.368	to_hand	poldrack-single-stim	s546	False
290.181	0.1	0.351	290.532	0	PA_without_intermediate	test	ward_and_allport	71	18.0	0.351	to_board	poldrack-single-stim	s546	False
290.537	0.1	0.7	291.237	0	PA_without_intermediate	test	ward_and_allport	89	18.0	0.7	to_hand	poldrack-single-stim	s546	False
291.238	0.1	0.436	291.674	0	PA_without_intermediate	test	ward_and_allport	71	18.0	0.436	to_board	poldrack-single-stim	s546	False
291.679	0.1	0.644	292.323	0	PA_without_intermediate	test	ward_and_allport	89	18.0	0.644	to_hand	poldrack-single-stim	s546	False
292.324	0.1	0.345	292.669	0	PA_without_intermediate	test	ward_and_allport	82	18.0	0.345	to_board	poldrack-single-stim	s546	False
292.675	1.0	2.136	292.674	0	PA_without_intermediate	test	ward_and_allport	-1	18.0	n/a	feedback	poldrack-single-stim	s546	False
294.815	4.446	4.446	299.261	1	PA_without_intermediate	test	ward_and_allport	71	19.0	4.446	to_hand	poldrack-single-stim	s546	False
299.262	0.1	0.406	299.668	0	PA_without_intermediate	test	ward_and_allport	89	19.0	0.406	to_board	poldrack-single-stim	s546	False
299.672	0.1	0.332	300.004	0	PA_without_intermediate	test	ward_and_allport	71	19.0	0.332	to_hand	poldrack-single-stim	s546	False
300.005	0.1	0.296	300.301	0	PA_without_intermediate	test	ward_and_allport	89	19.0	0.296	to_board	poldrack-single-stim	s546	False
300.307	0.1	0.716	301.023	0	PA_without_intermediate	test	ward_and_allport	71	19.0	0.716	to_hand	poldrack-single-stim	s546	False
301.024	0.1	0.262	301.286	0	PA_without_intermediate	test	ward_and_allport	82	19.0	0.262	to_board	poldrack-single-stim	s546	False
301.292	1.0	7.168	301.291	0	PA_without_intermediate	test	ward_and_allport	-1	19.0	n/a	feedback	poldrack-single-stim	s546	False
308.464	5.27	5.27	313.734	1	PA_without_intermediate	test	ward_and_allport	71	20.0	5.27	to_hand	poldrack-single-stim	s546	False
313.736	0.1	0.38	314.116	0	PA_without_intermediate	test	ward_and_allport	82	20.0	0.38	to_board	poldrack-single-stim	s546	False
314.121	0.1	0.383	314.504	0	PA_without_intermediate	test	ward_and_allport	71	20.0	0.383	to_hand	poldrack-single-stim	s546	False
314.504	0.1	0.361	314.865	0	PA_without_intermediate	test	ward_and_allport	82	20.0	0.361	to_board	poldrack-single-stim	s546	False
314.871	0.1	0.403	315.274	0	PA_without_intermediate	test	ward_and_allport	71	20.0	0.403	to_hand	poldrack-single-stim	s546	False
315.275	0.1	0.264	315.539	0	PA_without_intermediate	test	ward_and_allport	89	20.0	0.264	to_board	poldrack-single-stim	s546	False
315.545	1.0	2.816	315.544	0	PA_without_intermediate	test	ward_and_allport	-1	20.0	n/a	feedback	poldrack-single-stim	s546	False
318.366	8.063	8.063	326.429	1	PA_with_intermediate	test	ward_and_allport	89	21.0	8.063	to_hand	poldrack-single-stim	s546	False
326.43	0.1	0.587	327.017	0	PA_with_intermediate	test	ward_and_allport	82	21.0	0.587	to_board	poldrack-single-stim	s546	False
327.021	0.1	0.631	327.652	0	PA_with_intermediate	test	ward_and_allport	89	21.0	0.631	to_hand	poldrack-single-stim	s546	False
327.653	0.1	0.645	328.298	0	PA_with_intermediate	test	ward_and_allport	71	21.0	0.645	to_board	poldrack-single-stim	s546	False
328.304	0.1	0.581	328.885	0	PA_with_intermediate	test	ward_and_allport	82	21.0	0.581	to_hand	poldrack-single-stim	s546	False
328.885	0.1	0.72	329.605	0	PA_with_intermediate	test	ward_and_allport	71	21.0	0.72	to_board	poldrack-single-stim	s546	False
329.612	1.0	2.952	329.611	0	PA_with_intermediate	test	ward_and_allport	-1	21.0	n/a	feedback	poldrack-single-stim	s546	False
332.57	4.191	4.191	336.761	1	PA_with_intermediate	test	ward_and_allport	71	22.0	4.191	to_hand	poldrack-single-stim	s546	False
336.761	0.1	0.292	337.053	0	PA_with_intermediate	test	ward_and_allport	89	22.0	0.292	to_board	poldrack-single-stim	s546	False
337.059	0.1	0.47	337.529	0	PA_with_intermediate	test	ward_and_allport	71	22.0	0.47	to_hand	poldrack-single-stim	s546	False
337.53	0.1	0.47	338.0	0	PA_with_intermediate	test	ward_and_allport	82	22.0	0.47	to_board	poldrack-single-stim	s546	False
338.006	0.1	0.447	338.453	0	PA_with_intermediate	test	ward_and_allport	89	22.0	0.447	to_hand	poldrack-single-stim	s546	False
338.454	0.1	0.456	338.91	0	PA_with_intermediate	test	ward_and_allport	71	22.0	0.456	to_board	poldrack-single-stim	s546	False
338.917	1.0	2.136	338.916	0	PA_with_intermediate	test	ward_and_allport	-1	22.0	n/a	feedback	poldrack-single-stim	s546	False
341.059	3.725	3.725	344.784	1	PA_without_intermediate	test	ward_and_allport	71	23.0	3.725	to_hand	poldrack-single-stim	s546	False
344.785	0.1	0.41	345.195	0	PA_without_intermediate	test	ward_and_allport	82	23.0	0.41	to_board	poldrack-single-stim	s546	False
345.201	0.1	0.392	345.593	0	PA_without_intermediate	test	ward_and_allport	71	23.0	0.392	to_hand	poldrack-single-stim	s546	False
345.594	0.1	0.316	345.91	0	PA_without_intermediate	test	ward_and_allport	89	23.0	0.316	to_board	poldrack-single-stim	s546	False
345.915	0.1	0.306	346.221	0	PA_without_intermediate	test	ward_and_allport	71	23.0	0.306	to_hand	poldrack-single-stim	s546	False
346.223	0.1	0.35	346.573	0	PA_without_intermediate	test	ward_and_allport	82	23.0	0.35	to_board	poldrack-single-stim	s546	False
346.581	1.0	2.68	346.58	0	PA_without_intermediate	test	ward_and_allport	-1	23.0	n/a	feedback	poldrack-single-stim	s546	False
349.266	4.728	4.728	353.994	1	PA_without_intermediate	test	ward_and_allport	82	24.0	4.728	to_hand	poldrack-single-stim	s546	False
353.996	0.1	0.402	354.398	0	PA_without_intermediate	test	ward_and_allport	71	24.0	0.402	to_board	poldrack-single-stim	s546	False
354.403	0.1	0.681	355.084	0	PA_without_intermediate	test	ward_and_allport	82	24.0	0.681	to_hand	poldrack-single-stim	s546	False
355.086	0.1	0.363	355.449	0	PA_without_intermediate	test	ward_and_allport	71	24.0	0.363	to_board	poldrack-single-stim	s546	False
355.455	0.1	0.88	356.335	0	PA_without_intermediate	test	ward_and_allport	82	24.0	0.88	to_hand	poldrack-single-stim	s546	False
356.335	0.1	0.304	356.639	0	PA_without_intermediate	test	ward_and_allport	89	24.0	0.304	to_board	poldrack-single-stim	s546	False
356.647	1.0	3.088	356.646	0	PA_without_intermediate	test	ward_and_allport	-1	24.0	n/a	feedback	poldrack-single-stim	s546	False
359.743	5.789	5.789	365.532	1	PA_with_intermediate	test	ward_and_allport	71	25.0	5.789	to_hand	poldrack-single-stim	s546	False
365.533	0.1	0.391	365.924	0	PA_with_intermediate	test	ward_and_allport	82	25.0	0.391	to_board	poldrack-single-stim	s546	False
365.93	0.1	0.38	366.31	0	PA_with_intermediate	test	ward_and_allport	71	25.0	0.38	to_hand	poldrack-single-stim	s546	False
366.311	0.1	0.315	366.626	0	PA_with_intermediate	test	ward_and_allport	89	25.0	0.315	to_board	poldrack-single-stim	s546	False
366.633	0.1	0.481	367.114	0	PA_with_intermediate	test	ward_and_allport	82	25.0	0.481	to_hand	poldrack-single-stim	s546	False
367.116	0.1	0.384	367.5	0	PA_with_intermediate	test	ward_and_allport	71	25.0	0.384	to_board	poldrack-single-stim	s546	False
367.507	1.0	2.0	367.506	0	PA_with_intermediate	test	ward_and_allport	-1	25.0	n/a	feedback	poldrack-single-stim	s546	False
369.513	8.326	8.326	377.839	1	PA_without_intermediate	test	ward_and_allport	82	26.0	8.326	to_hand	poldrack-single-stim	s546	False
377.84	0.1	0.29	378.13	0	PA_without_intermediate	test	ward_and_allport	71	26.0	0.29	to_board	poldrack-single-stim	s546	False
378.136	0.1	0.898	379.034	0	PA_without_intermediate	test	ward_and_allport	82	26.0	0.898	to_hand	poldrack-single-stim	s546	False
379.035	0.1	0.327	379.362	0	PA_without_intermediate	test	ward_and_allport	89	26.0	0.327	to_board	poldrack-single-stim	s546	False
379.368	0.1	0.848	380.216	0	PA_without_intermediate	test	ward_and_allport	82	26.0	0.848	to_hand	poldrack-single-stim	s546	False
380.218	0.1	0.329	380.547	0	PA_without_intermediate	test	ward_and_allport	71	26.0	0.329	to_board	poldrack-single-stim	s546	False
380.555	1.0	2.0	380.554	0	PA_without_intermediate	test	ward_and_allport	-1	26.0	n/a	feedback	poldrack-single-stim	s546	False
382.561	3.871	3.871	386.432	1	PA_without_intermediate	test	ward_and_allport	89	27.0	3.871	to_hand	poldrack-single-stim	s546	False
386.434	0.1	0.355	386.789	0	PA_without_intermediate	test	ward_and_allport	82	27.0	0.355	to_board	poldrack-single-stim	s546	False
386.796	0.1	1.892	388.688	0	PA_without_intermediate	test	ward_and_allport	89	27.0	1.892	to_hand	poldrack-single-stim	s546	False
388.689	0.1	0.406	389.095	0	PA_without_intermediate	test	ward_and_allport	82	27.0	0.406	to_board	poldrack-single-stim	s546	False
389.102	0.1	1.067	390.169	0	PA_without_intermediate	test	ward_and_allport	89	27.0	1.067	to_hand	poldrack-single-stim	s546	False
390.169	0.1	0.619	390.788	0	PA_without_intermediate	test	ward_and_allport	71	27.0	0.619	to_board	poldrack-single-stim	s546	False
390.796	1.0	2.0	390.795	0	PA_without_intermediate	test	ward_and_allport	-1	27.0	n/a	feedback	poldrack-single-stim	s546	False
392.804	3.96	3.96	396.764	1	PA_with_intermediate	test	ward_and_allport	82	28.0	3.96	to_hand	poldrack-single-stim	s546	False
396.765	0.1	0.365	397.13	0	PA_with_intermediate	test	ward_and_allport	71	28.0	0.365	to_board	poldrack-single-stim	s546	False
397.137	0.1	0.438	397.575	0	PA_with_intermediate	test	ward_and_allport	82	28.0	0.438	to_hand	poldrack-single-stim	s546	False
397.576	0.1	0.332	397.908	0	PA_with_intermediate	test	ward_and_allport	89	28.0	0.332	to_board	poldrack-single-stim	s546	False
397.915	0.1	0.672	398.587	0	PA_with_intermediate	test	ward_and_allport	71	28.0	0.672	to_hand	poldrack-single-stim	s546	False
398.588	0.1	0.348	398.936	0	PA_with_intermediate	test	ward_and_allport	89	28.0	0.348	to_board	poldrack-single-stim	s546	False
398.945	1.0	2.544	398.944	0	PA_with_intermediate	test	ward_and_allport	-1	28.0	n/a	feedback	poldrack-single-stim	s546	False
401.495	4.948	4.948	406.443	1	PA_without_intermediate	test	ward_and_allport	89	29.0	4.948	to_hand	poldrack-single-stim	s546	False
406.443	0.1	0.362	406.805	0	PA_without_intermediate	test	ward_and_allport	82	29.0	0.362	to_board	poldrack-single-stim	s546	False
406.812	0.1	0.658	407.47	0	PA_without_intermediate	test	ward_and_allport	89	29.0	0.658	to_hand	poldrack-single-stim	s546	False
407.472	0.1	0.399	407.871	0	PA_without_intermediate	test	ward_and_allport	71	29.0	0.399	to_board	poldrack-single-stim	s546	False
407.877	0.1	0.491	408.368	0	PA_without_intermediate	test	ward_and_allport	89	29.0	0.491	to_hand	poldrack-single-stim	s546	False
408.369	0.1	0.287	408.656	0	PA_without_intermediate	test	ward_and_allport	82	29.0	0.287	to_board	poldrack-single-stim	s546	False
408.665	1.0	2.272	408.664	0	PA_without_intermediate	test	ward_and_allport	-1	29.0	n/a	feedback	poldrack-single-stim	s546	False
415.946	3.99	3.99	419.936	1	PA_with_intermediate	test	ward_and_allport	71	30.0	3.99	to_hand	poldrack-single-stim	s546	False
419.938	0.1	0.389	420.327	0	PA_with_intermediate	test	ward_and_allport	82	30.0	0.389	to_board	poldrack-single-stim	s546	False
420.334	0.1	0.934	421.268	0	PA_with_intermediate	test	ward_and_allport	71	30.0	0.934	to_hand	poldrack-single-stim	s546	False
421.268	0.1	0.353	421.621	0	PA_with_intermediate	test	ward_and_allport	89	30.0	0.353	to_board	poldrack-single-stim	s546	False
421.629	0.1	0.813	422.442	0	PA_with_intermediate	test	ward_and_allport	82	30.0	0.813	to_hand	poldrack-single-stim	s546	False
422.443	0.1	0.338	422.781	0	PA_with_intermediate	test	ward_and_allport	89	30.0	0.338	to_board	poldrack-single-stim	s546	False
422.789	1.0	4.04	422.788	0	PA_with_intermediate	test	ward_and_allport	-1	30.0	n/a	feedback	poldrack-single-stim	s546	False
426.837	2.692	2.692	429.529	1	PA_with_intermediate	test	ward_and_allport	71	31.0	2.692	to_hand	poldrack-single-stim	s546	False
429.531	0.1	0.445	429.976	0	PA_with_intermediate	test	ward_and_allport	82	31.0	0.445	to_board	poldrack-single-stim	s546	False
429.983	0.1	1.166	431.149	0	PA_with_intermediate	test	ward_and_allport	71	31.0	1.166	to_hand	poldrack-single-stim	s546	False
431.149	0.1	0.409	431.558	0	PA_with_intermediate	test	ward_and_allport	89	31.0	0.409	to_board	poldrack-single-stim	s546	False
431.566	0.1	0.596	432.162	0	PA_with_intermediate	test	ward_and_allport	82	31.0	0.596	to_hand	poldrack-single-stim	s546	False
432.163	0.1	0.356	432.519	0	PA_with_intermediate	test	ward_and_allport	89	31.0	0.356	to_board	poldrack-single-stim	s546	False
432.528	1.0	2.272	432.527	0	PA_with_intermediate	test	ward_and_allport	-1	31.0	n/a	feedback	poldrack-single-stim	s546	False
434.808	4.119	4.119	438.927	1	PA_with_intermediate	test	ward_and_allport	82	32.0	4.119	to_hand	poldrack-single-stim	s546	False
438.928	0.1	0.327	439.255	0	PA_with_intermediate	test	ward_and_allport	89	32.0	0.327	to_board	poldrack-single-stim	s546	False
439.264	0.1	0.706	439.97	0	PA_with_intermediate	test	ward_and_allport	82	32.0	0.706	to_hand	poldrack-single-stim	s546	False
439.971	0.1	0.359	440.33	0	PA_with_intermediate	test	ward_and_allport	71	32.0	0.359	to_board	poldrack-single-stim	s546	False
440.337	0.1	0.6	440.937	0	PA_with_intermediate	test	ward_and_allport	89	32.0	0.6	to_hand	poldrack-single-stim	s546	False
440.938	0.1	0.34	441.278	0	PA_with_intermediate	test	ward_and_allport	71	32.0	0.34	to_board	poldrack-single-stim	s546	False
441.288	1.0	2.136	441.287	0	PA_with_intermediate	test	ward_and_allport	-1	32.0	n/a	feedback	poldrack-single-stim	s546	False
443.433	4.99	4.99	448.423	1	PA_with_intermediate	test	ward_and_allport	82	33.0	4.99	to_hand	poldrack-single-stim	s546	False
448.424	0.1	0.378	448.802	0	PA_with_intermediate	test	ward_and_allport	71	33.0	0.378	to_board	poldrack-single-stim	s546	False
448.811	0.1	0.464	449.275	0	PA_with_intermediate	test	ward_and_allport	82	33.0	0.464	to_hand	poldrack-single-stim	s546	False
449.275	0.1	0.481	449.756	0	PA_with_intermediate	test	ward_and_allport	89	33.0	0.481	to_board	poldrack-single-stim	s546	False
449.765	0.1	0.817	450.582	0	PA_with_intermediate	test	ward_and_allport	71	33.0	0.817	to_hand	poldrack-single-stim	s546	False
450.583	0.1	0.333	450.916	0	PA_with_intermediate	test	ward_and_allport	82	33.0	0.333	to_board	poldrack-single-stim	s546	False
450.924	1.0	2.0	450.923	0	PA_with_intermediate	test	ward_and_allport	-1	33.0	n/a	feedback	poldrack-single-stim	s546	False
452.936	3.611	3.611	456.547	1	PA_with_intermediate	test	ward_and_allport	71	34.0	3.611	to_hand	poldrack-single-stim	s546	False
456.547	0.1	0.372	456.919	0	PA_with_intermediate	test	ward_and_allport	89	34.0	0.372	to_board	poldrack-single-stim	s546	False
456.927	0.1	0.55	457.477	0	PA_with_intermediate	test	ward_and_allport	71	34.0	0.55	to_hand	poldrack-single-stim	s546	False
457.478	0.1	0.341	457.819	0	PA_with_intermediate	test	ward_and_allport	82	34.0	0.341	to_board	poldrack-single-stim	s546	False
457.827	0.1	0.447	458.274	0	PA_with_intermediate	test	ward_and_allport	89	34.0	0.447	to_hand	poldrack-single-stim	s546	False
458.274	0.1	0.373	458.647	0	PA_with_intermediate	test	ward_and_allport	82	34.0	0.373	to_board	poldrack-single-stim	s546	False
458.656	1.0	2.0	458.655	0	PA_with_intermediate	test	ward_and_allport	-1	34.0	n/a	feedback	poldrack-single-stim	s546	False
460.663	6.687	6.687	467.35	1	PA_without_intermediate	test	ward_and_allport	89	35.0	6.687	to_hand	poldrack-single-stim	s546	False
467.351	0.1	0.453	467.804	0	PA_without_intermediate	test	ward_and_allport	82	35.0	0.453	to_board	poldrack-single-stim	s546	False
467.81	0.1	1.514	469.324	0	PA_without_intermediate	test	ward_and_allport	89	35.0	1.514	to_hand	poldrack-single-stim	s546	False
469.324	0.1	0.499	469.823	0	PA_without_intermediate	test	ward_and_allport	71	35.0	0.499	to_board	poldrack-single-stim	s546	False
469.832	0.1	0.629	470.461	0	PA_without_intermediate	test	ward_and_allport	89	35.0	0.629	to_hand	poldrack-single-stim	s546	False
470.463	0.1	0.307	470.77	0	PA_without_intermediate	test	ward_and_allport	82	35.0	0.307	to_board	poldrack-single-stim	s546	False
470.779	1.0	2.408	470.778	0	PA_without_intermediate	test	ward_and_allport	-1	35.0	n/a	feedback	poldrack-single-stim	s546	False
473.196	7.428	7.428	480.624	1	PA_with_intermediate	test	ward_and_allport	89	36.0	7.428	to_hand	poldrack-single-stim	s546	False
480.625	0.1	0.42	481.045	0	PA_with_intermediate	test	ward_and_allport	82	36.0	0.42	to_board	poldrack-single-stim	s546	False
481.051	0.1	1.01	482.061	0	PA_with_intermediate	test	ward_and_allport	89	36.0	1.01	to_hand	poldrack-single-stim	s546	False
482.063	0.1	0.371	482.434	0	PA_with_intermediate	test	ward_and_allport	71	36.0	0.371	to_board	poldrack-single-stim	s546	False
482.443	0.1	0.641	483.084	0	PA_with_intermediate	test	ward_and_allport	82	36.0	0.641	to_hand	poldrack-single-stim	s546	False
483.086	0.1	0.323	483.409	0	PA_with_intermediate	test	ward_and_allport	89	36.0	0.323	to_board	poldrack-single-stim	s546	False
483.421	1.0	3.768	483.42	0	PA_with_intermediate	test	ward_and_allport	-1	36.0	n/a	feedback	poldrack-single-stim	s546	False
487.198	4.083	4.083	491.281	1	PA_with_intermediate	test	ward_and_allport	89	37.0	4.083	to_hand	poldrack-single-stim	s546	False
491.282	0.1	0.348	491.63	0	PA_with_intermediate	test	ward_and_allport	71	37.0	0.348	to_board	poldrack-single-stim	s546	False
491.636	0.1	0.445	492.081	0	PA_with_intermediate	test	ward_and_allport	89	37.0	0.445	to_hand	poldrack-single-stim	s546	False
492.083	0.1	0.441	492.524	0	PA_with_intermediate	test	ward_and_allport	82	37.0	0.441	to_board	poldrack-single-stim	s546	False
492.533	0.1	0.396	492.929	0	PA_with_intermediate	test	ward_and_allport	71	37.0	0.396	to_hand	poldrack-single-stim	s546	False
492.93	0.1	0.297	493.227	0	PA_with_intermediate	test	ward_and_allport	89	37.0	0.297	to_board	poldrack-single-stim	s546	False
493.239	1.0	2.68	493.238	0	PA_with_intermediate	test	ward_and_allport	-1	37.0	n/a	feedback	poldrack-single-stim	s546	False
495.928	6.529	6.529	502.457	1	PA_without_intermediate	test	ward_and_allport	82	38.0	6.529	to_hand	poldrack-single-stim	s546	False
502.459	0.1	0.395	502.854	0	PA_without_intermediate	test	ward_and_allport	89	38.0	0.395	to_board	poldrack-single-stim	s546	False
502.864	0.1	1.075	503.939	0	PA_without_intermediate	test	ward_and_allport	82	38.0	1.075	to_hand	poldrack-single-stim	s546	False
503.94	0.1	0.328	504.268	0	PA_without_intermediate	test	ward_and_allport	89	38.0	0.328	to_board	poldrack-single-stim	s546	False
504.278	0.1	0.673	504.951	0	PA_without_intermediate	test	ward_and_allport	82	38.0	0.673	to_hand	poldrack-single-stim	s546	False
504.952	0.1	0.281	505.233	0	PA_without_intermediate	test	ward_and_allport	71	38.0	0.281	to_board	poldrack-single-stim	s546	False
505.244	1.0	3.224	505.243	0	PA_without_intermediate	test	ward_and_allport	-1	38.0	n/a	feedback	poldrack-single-stim	s546	False
508.477	4.823	4.823	513.3	1	PA_without_intermediate	test	ward_and_allport	71	39.0	4.823	to_hand	poldrack-single-stim	s546	False
513.301	0.1	0.415	513.716	0	PA_without_intermediate	test	ward_and_allport	89	39.0	0.415	to_board	poldrack-single-stim	s546	False
513.724	0.1	0.461	514.185	0	PA_without_intermediate	test	ward_and_allport	71	39.0	0.461	to_hand	poldrack-single-stim	s546	False
514.186	0.1	0.418	514.604	0	PA_without_intermediate	test	ward_and_allport	82	39.0	0.418	to_board	poldrack-single-stim	s546	False
514.615	0.1	0.399	515.014	0	PA_without_intermediate	test	ward_and_allport	71	39.0	0.399	to_hand	poldrack-single-stim	s546	False
515.015	0.1	0.226	515.241	0	PA_without_intermediate	test	ward_and_allport	89	39.0	0.226	to_board	poldrack-single-stim	s546	False
515.251	1.0	3.36	515.25	0	PA_without_intermediate	test	ward_and_allport	-1	39.0	n/a	feedback	poldrack-single-stim	s546	False
518.62	3.386	3.386	522.006	1	PA_without_intermediate	test	ward_and_allport	89	40.0	3.386	to_hand	poldrack-single-stim	s546	False
522.007	0.1	0.349	522.356	0	PA_without_intermediate	test	ward_and_allport	71	40.0	0.349	to_board	poldrack-single-stim	s546	False
522.367	0.1	0.768	523.135	0	PA_without_intermediate	test	ward_and_allport	89	40.0	0.768	to_hand	poldrack-single-stim	s546	False
523.136	0.1	0.394	523.53	0	PA_without_intermediate	test	ward_and_allport	82	40.0	0.394	to_board	poldrack-single-stim	s546	False
523.54	0.1	0.448	523.988	0	PA_without_intermediate	test	ward_and_allport	89	40.0	0.448	to_hand	poldrack-single-stim	s546	False
523.99	0.1	0.225	524.215	0	PA_without_intermediate	test	ward_and_allport	71	40.0	0.225	to_board	poldrack-single-stim	s546	False
524.224	1.0	2.0	524.223	0	PA_without_intermediate	test	ward_and_allport	-1	40.0	n/a	feedback	poldrack-single-stim	s546	False
526.231	5.921	5.921	532.152	1	PA_without_intermediate	test	ward_and_allport	82	41.0	5.921	to_hand	poldrack-single-stim	s546	False
532.154	0.1	0.311	532.465	0	PA_without_intermediate	test	ward_and_allport	89	41.0	0.311	to_board	poldrack-single-stim	s546	False
532.474	0.1	0.405	532.879	0	PA_without_intermediate	test	ward_and_allport	82	41.0	0.405	to_hand	poldrack-single-stim	s546	False
532.88	0.1	0.344	533.224	0	PA_without_intermediate	test	ward_and_allport	89	41.0	0.344	to_board	poldrack-single-stim	s546	False
533.235	0.1	0.485	533.72	0	PA_without_intermediate	test	ward_and_allport	82	41.0	0.485	to_hand	poldrack-single-stim	s546	False
533.721	0.1	0.322	534.043	0	PA_without_intermediate	test	ward_and_allport	71	41.0	0.322	to_board	poldrack-single-stim	s546	False
534.055	1.0	2.408	534.054	0	PA_without_intermediate	test	ward_and_allport	-1	41.0	n/a	feedback	poldrack-single-stim	s546	False
536.47	5.158	5.158	541.628	1	PA_with_intermediate	test	ward_and_allport	89	42.0	5.158	to_hand	poldrack-single-stim	s546	False
541.628	0.1	0.355	541.983	0	PA_with_intermediate	test	ward_and_allport	71	42.0	0.355	to_board	poldrack-single-stim	s546	False
541.992	0.1	0.39	542.382	0	PA_with_intermediate	test	ward_and_allport	89	42.0	0.39	to_hand	poldrack-single-stim	s546	False
542.382	0.1	0.4	542.782	0	PA_with_intermediate	test	ward_and_allport	82	42.0	0.4	to_board	poldrack-single-stim	s546	False
542.791	0.1	0.368	543.159	0	PA_with_intermediate	test	ward_and_allport	71	42.0	0.368	to_hand	poldrack-single-stim	s546	False
543.159	0.1	0.458	543.617	0	PA_with_intermediate	test	ward_and_allport	82	42.0	0.458	to_board	poldrack-single-stim	s546	False
543.628	1.0	2.136	543.627	0	PA_with_intermediate	test	ward_and_allport	-1	42.0	n/a	feedback	poldrack-single-stim	s546	False
545.776	4.286	4.286	550.062	1	PA_without_intermediate	test	ward_and_allport	82	43.0	4.286	to_hand	poldrack-single-stim	s546	False
550.063	0.1	0.302	550.365	0	PA_without_intermediate	test	ward_and_allport	89	43.0	0.302	to_board	poldrack-single-stim	s546	False
550.374	0.1	2.941	553.315	0	PA_without_intermediate	test	ward_and_allport	89	43.0	2.941	to_hand	poldrack-single-stim	s546	False
553.316	0.1	0.209	553.525	0	PA_without_intermediate	test	ward_and_allport	71	43.0	0.209	to_board	poldrack-single-stim	s546	False
553.533	0.1	0.62	554.153	0	PA_without_intermediate	test	ward_and_allport	82	43.0	0.62	to_hand	poldrack-single-stim	s546	False
554.155	0.1	0.504	554.659	0	PA_without_intermediate	test	ward_and_allport	71	43.0	0.504	to_board	poldrack-single-stim	s546	False
554.67	0.1	1.794	556.464	0	PA_without_intermediate	test	ward_and_allport	82	43.0	1.794	to_hand	poldrack-single-stim	s546	False
556.465	0.1	0.278	556.743	0	PA_without_intermediate	test	ward_and_allport	89	43.0	0.278	to_board	poldrack-single-stim	s546	False
556.754	1.0	5.128	556.753	0	PA_without_intermediate	test	ward_and_allport	-1	43.0	n/a	feedback	poldrack-single-stim	s546	False
561.893	6.481	6.481	568.374	1	PA_without_intermediate	test	ward_and_allport	71	44.0	6.481	to_hand	poldrack-single-stim	s546	False
568.374	0.1	0.44	568.814	0	PA_without_intermediate	test	ward_and_allport	82	44.0	0.44	to_board	poldrack-single-stim	s546	False
568.826	0.1	0.679	569.505	0	PA_without_intermediate	test	ward_and_allport	71	44.0	0.679	to_hand	poldrack-single-stim	s546	False
569.505	0.1	0.374	569.879	0	PA_without_intermediate	test	ward_and_allport	82	44.0	0.374	to_board	poldrack-single-stim	s546	False
569.89	0.1	0.496	570.386	0	PA_without_intermediate	test	ward_and_allport	71	44.0	0.496	to_hand	poldrack-single-stim	s546	False
570.387	0.1	0.358	570.745	0	PA_without_intermediate	test	ward_and_allport	89	44.0	0.358	to_board	poldrack-single-stim	s546	False
570.759	1.0	2.136	570.758	0	PA_without_intermediate	test	ward_and_allport	-1	44.0	n/a	feedback	poldrack-single-stim	s546	False
