onset	duration	block_duration	movement_onset	planning	condition	exp_stage	experiment_exp_id	key_press	problem_id	response_time	trial_id	trial_type	worker_id	junk
3.01	5.124	5.124	8.134	1	UA_with_intermediate	practice	ward_and_allport	71	0.0	5.124	to_hand	poldrack-single-stim	s603	False
8.136	0.1	0.922	9.058	0	UA_with_intermediate	practice	ward_and_allport	82	0.0	0.922	to_board	poldrack-single-stim	s603	False
9.06	0.1	2.153	11.213	0	UA_with_intermediate	practice	ward_and_allport	71	0.0	2.153	to_hand	poldrack-single-stim	s603	False
11.213	0.1	1.039	12.252	0	UA_with_intermediate	practice	ward_and_allport	89	0.0	1.039	to_board	poldrack-single-stim	s603	False
12.254	0.1	1.002	13.256	0	UA_with_intermediate	practice	ward_and_allport	82	0.0	1.002	to_hand	poldrack-single-stim	s603	False
13.258	0.1	4.055	17.313	0	UA_with_intermediate	practice	ward_and_allport	71	0.0	4.055	to_board	poldrack-single-stim	s603	False
17.314	0.1	1.856	19.17	0	UA_with_intermediate	practice	ward_and_allport	71	0.0	1.856	to_hand	poldrack-single-stim	s603	False
19.172	0.1	0.739	19.911	0	UA_with_intermediate	practice	ward_and_allport	89	0.0	0.739	to_board	poldrack-single-stim	s603	False
19.917	1.0	2.5	19.916	0	UA_with_intermediate	practice	ward_and_allport	-1	0.0	n/a	feedback	poldrack-single-stim	s603	False
22.419	6.631	6.631	29.05	1	UA_with_intermediate	practice	ward_and_allport	89	1.0	6.631	to_hand	poldrack-single-stim	s603	False
29.051	0.1	0.856	29.907	0	UA_with_intermediate	practice	ward_and_allport	82	1.0	0.856	to_board	poldrack-single-stim	s603	False
29.909	0.1	1.245	31.154	0	UA_with_intermediate	practice	ward_and_allport	71	1.0	1.245	to_hand	poldrack-single-stim	s603	False
31.155	0.1	0.562	31.717	0	UA_with_intermediate	practice	ward_and_allport	89	1.0	0.562	to_board	poldrack-single-stim	s603	False
31.719	0.1	2.079	33.798	0	UA_with_intermediate	practice	ward_and_allport	82	1.0	2.079	to_hand	poldrack-single-stim	s603	False
33.8	0.1	0.725	34.525	0	UA_with_intermediate	practice	ward_and_allport	89	1.0	0.725	to_board	poldrack-single-stim	s603	False
34.53	1.0	2.1	34.529	0	UA_with_intermediate	practice	ward_and_allport	-1	1.0	n/a	feedback	poldrack-single-stim	s603	False
36.632	10.477	10.477	47.109	1	UA_without_intermediate	practice	ward_and_allport	82	2.0	10.477	to_hand	poldrack-single-stim	s603	False
47.11	0.1	0.765	47.875	0	UA_without_intermediate	practice	ward_and_allport	89	2.0	0.765	to_board	poldrack-single-stim	s603	False
47.877	0.1	1.965	49.842	0	UA_without_intermediate	practice	ward_and_allport	71	2.0	1.965	to_hand	poldrack-single-stim	s603	False
49.844	0.1	0.768	50.612	0	UA_without_intermediate	practice	ward_and_allport	89	2.0	0.768	to_board	poldrack-single-stim	s603	False
50.615	0.1	1.236	51.851	0	UA_without_intermediate	practice	ward_and_allport	71	2.0	1.236	to_hand	poldrack-single-stim	s603	False
51.853	0.1	0.354	52.207	0	UA_without_intermediate	practice	ward_and_allport	89	2.0	0.354	to_board	poldrack-single-stim	s603	False
52.21	1.0	2.2	52.209	0	UA_without_intermediate	practice	ward_and_allport	-1	2.0	n/a	feedback	poldrack-single-stim	s603	False
54.412	5.456	5.456	59.868	1	UA_without_intermediate	practice	ward_and_allport	71	3.0	5.456	to_hand	poldrack-single-stim	s603	False
59.869	0.1	0.518	60.387	0	UA_without_intermediate	practice	ward_and_allport	89	3.0	0.518	to_board	poldrack-single-stim	s603	False
60.39	0.1	1.54	61.93	0	UA_without_intermediate	practice	ward_and_allport	82	3.0	1.54	to_hand	poldrack-single-stim	s603	False
61.931	0.1	0.39	62.321	0	UA_without_intermediate	practice	ward_and_allport	89	3.0	0.39	to_board	poldrack-single-stim	s603	False
62.323	0.1	1.076	63.399	0	UA_without_intermediate	practice	ward_and_allport	71	3.0	1.076	to_hand	poldrack-single-stim	s603	False
63.401	0.1	0.606	64.007	0	UA_without_intermediate	practice	ward_and_allport	89	3.0	0.606	to_board	poldrack-single-stim	s603	False
64.011	1.0	2.0	64.01	0	UA_without_intermediate	practice	ward_and_allport	-1	3.0	n/a	feedback	poldrack-single-stim	s603	False
68.017	8.898	8.898	76.915	1	PA_without_intermediate	test	ward_and_allport	89	0.0	8.898	to_hand	poldrack-single-stim	s603	False
76.917	0.1	0.715	77.632	0	PA_without_intermediate	test	ward_and_allport	82	0.0	0.715	to_board	poldrack-single-stim	s603	False
77.634	0.1	2.465	80.099	0	PA_without_intermediate	test	ward_and_allport	89	0.0	2.465	to_hand	poldrack-single-stim	s603	False
80.1	0.1	0.724	80.824	0	PA_without_intermediate	test	ward_and_allport	82	0.0	0.724	to_board	poldrack-single-stim	s603	False
80.825	0.1	1.352	82.177	0	PA_without_intermediate	test	ward_and_allport	89	0.0	1.352	to_hand	poldrack-single-stim	s603	False
82.179	0.1	0.345	82.524	0	PA_without_intermediate	test	ward_and_allport	71	0.0	0.345	to_board	poldrack-single-stim	s603	False
82.529	1.0	3.088	82.528	0	PA_without_intermediate	test	ward_and_allport	-1	0.0	n/a	feedback	poldrack-single-stim	s603	False
85.619	4.714	4.714	90.333	1	PA_with_intermediate	test	ward_and_allport	71	1.0	4.714	to_hand	poldrack-single-stim	s603	False
90.334	0.1	0.285	90.619	0	PA_with_intermediate	test	ward_and_allport	82	1.0	0.285	to_board	poldrack-single-stim	s603	False
90.621	0.1	1.872	92.493	0	PA_with_intermediate	test	ward_and_allport	71	1.0	1.872	to_hand	poldrack-single-stim	s603	False
92.495	0.1	0.455	92.95	0	PA_with_intermediate	test	ward_and_allport	89	1.0	0.455	to_board	poldrack-single-stim	s603	False
92.952	0.1	1.374	94.326	0	PA_with_intermediate	test	ward_and_allport	82	1.0	1.374	to_hand	poldrack-single-stim	s603	False
94.328	0.1	0.487	94.815	0	PA_with_intermediate	test	ward_and_allport	71	1.0	0.487	to_board	poldrack-single-stim	s603	False
94.819	1.0	2.0	94.818	0	PA_with_intermediate	test	ward_and_allport	-1	1.0	n/a	feedback	poldrack-single-stim	s603	False
96.822	5.586	5.586	102.408	1	PA_without_intermediate	test	ward_and_allport	89	2.0	5.586	to_hand	poldrack-single-stim	s603	False
102.41	0.1	1.189	103.599	0	PA_without_intermediate	test	ward_and_allport	82	2.0	1.189	to_board	poldrack-single-stim	s603	False
103.602	0.1	3.571	107.173	0	PA_without_intermediate	test	ward_and_allport	89	2.0	3.571	to_hand	poldrack-single-stim	s603	False
107.174	0.1	0.856	108.03	0	PA_without_intermediate	test	ward_and_allport	82	2.0	0.856	to_board	poldrack-single-stim	s603	False
108.032	0.1	1.677	109.709	0	PA_without_intermediate	test	ward_and_allport	82	2.0	1.677	to_hand	poldrack-single-stim	s603	False
109.71	0.1	0.832	110.542	0	PA_without_intermediate	test	ward_and_allport	71	2.0	0.832	to_board	poldrack-single-stim	s603	False
110.544	0.1	1.797	112.341	0	PA_without_intermediate	test	ward_and_allport	89	2.0	1.797	to_hand	poldrack-single-stim	s603	False
112.343	0.1	0.568	112.911	0	PA_without_intermediate	test	ward_and_allport	82	2.0	0.568	to_board	poldrack-single-stim	s603	False
112.916	1.0	2.0	112.915	0	PA_without_intermediate	test	ward_and_allport	-1	2.0	n/a	feedback	poldrack-single-stim	s603	False
114.919	2.999	2.999	117.918	1	PA_without_intermediate	test	ward_and_allport	71	3.0	2.999	to_hand	poldrack-single-stim	s603	False
117.919	0.1	0.451	118.37	0	PA_without_intermediate	test	ward_and_allport	82	3.0	0.451	to_board	poldrack-single-stim	s603	False
118.374	0.1	0.967	119.341	0	PA_without_intermediate	test	ward_and_allport	71	3.0	0.967	to_hand	poldrack-single-stim	s603	False
119.343	0.1	0.424	119.767	0	PA_without_intermediate	test	ward_and_allport	89	3.0	0.424	to_board	poldrack-single-stim	s603	False
119.77	0.1	0.685	120.455	0	PA_without_intermediate	test	ward_and_allport	71	3.0	0.685	to_hand	poldrack-single-stim	s603	False
120.456	0.1	0.852	121.308	0	PA_without_intermediate	test	ward_and_allport	82	3.0	0.852	to_board	poldrack-single-stim	s603	False
121.313	1.0	2.0	121.312	0	PA_without_intermediate	test	ward_and_allport	-1	3.0	n/a	feedback	poldrack-single-stim	s603	False
123.316	5.961	5.961	129.277	1	PA_with_intermediate	test	ward_and_allport	82	4.0	5.961	to_hand	poldrack-single-stim	s603	False
129.278	0.1	0.462	129.74	0	PA_with_intermediate	test	ward_and_allport	71	4.0	0.462	to_board	poldrack-single-stim	s603	False
129.743	0.1	2.203	131.946	0	PA_with_intermediate	test	ward_and_allport	82	4.0	2.203	to_hand	poldrack-single-stim	s603	False
131.947	0.1	0.574	132.521	0	PA_with_intermediate	test	ward_and_allport	89	4.0	0.574	to_board	poldrack-single-stim	s603	False
132.524	0.1	2.37	134.894	0	PA_with_intermediate	test	ward_and_allport	71	4.0	2.37	to_hand	poldrack-single-stim	s603	False
134.894	0.1	0.744	135.638	0	PA_with_intermediate	test	ward_and_allport	89	4.0	0.744	to_board	poldrack-single-stim	s603	False
135.643	1.0	2.544	135.642	0	PA_with_intermediate	test	ward_and_allport	-1	4.0	n/a	feedback	poldrack-single-stim	s603	False
138.191	5.547	5.547	143.738	1	PA_without_intermediate	test	ward_and_allport	82	5.0	5.547	to_hand	poldrack-single-stim	s603	False
143.739	0.1	0.733	144.472	0	PA_without_intermediate	test	ward_and_allport	89	5.0	0.733	to_board	poldrack-single-stim	s603	False
144.475	0.1	1.942	146.417	0	PA_without_intermediate	test	ward_and_allport	82	5.0	1.942	to_hand	poldrack-single-stim	s603	False
146.418	0.1	0.456	146.874	0	PA_without_intermediate	test	ward_and_allport	89	5.0	0.456	to_board	poldrack-single-stim	s603	False
146.878	0.1	1.803	148.681	0	PA_without_intermediate	test	ward_and_allport	82	5.0	1.803	to_hand	poldrack-single-stim	s603	False
148.682	0.1	0.57	149.252	0	PA_without_intermediate	test	ward_and_allport	71	5.0	0.57	to_board	poldrack-single-stim	s603	False
149.259	1.0	2.272	149.258	0	PA_without_intermediate	test	ward_and_allport	-1	5.0	n/a	feedback	poldrack-single-stim	s603	False
151.535	5.401	5.401	156.936	1	PA_with_intermediate	test	ward_and_allport	71	6.0	5.401	to_hand	poldrack-single-stim	s603	False
156.937	0.1	0.318	157.255	0	PA_with_intermediate	test	ward_and_allport	89	6.0	0.318	to_board	poldrack-single-stim	s603	False
157.258	0.1	0.642	157.9	0	PA_with_intermediate	test	ward_and_allport	71	6.0	0.642	to_hand	poldrack-single-stim	s603	False
157.901	0.1	0.288	158.189	0	PA_with_intermediate	test	ward_and_allport	82	6.0	0.288	to_board	poldrack-single-stim	s603	False
158.193	0.1	1.19	159.383	0	PA_with_intermediate	test	ward_and_allport	89	6.0	1.19	to_hand	poldrack-single-stim	s603	False
159.384	0.1	0.29	159.674	0	PA_with_intermediate	test	ward_and_allport	71	6.0	0.29	to_board	poldrack-single-stim	s603	False
159.677	1.0	4.04	159.676	0	PA_with_intermediate	test	ward_and_allport	-1	6.0	n/a	feedback	poldrack-single-stim	s603	False
163.723	5.52	5.52	169.243	1	PA_with_intermediate	test	ward_and_allport	82	7.0	5.52	to_hand	poldrack-single-stim	s603	False
169.244	0.1	0.351	169.595	0	PA_with_intermediate	test	ward_and_allport	89	7.0	0.351	to_board	poldrack-single-stim	s603	False
169.598	0.1	1.399	170.997	0	PA_with_intermediate	test	ward_and_allport	82	7.0	1.399	to_hand	poldrack-single-stim	s603	False
170.998	0.1	0.427	171.425	0	PA_with_intermediate	test	ward_and_allport	71	7.0	0.427	to_board	poldrack-single-stim	s603	False
171.428	0.1	0.947	172.375	0	PA_with_intermediate	test	ward_and_allport	89	7.0	0.947	to_hand	poldrack-single-stim	s603	False
172.376	0.1	0.432	172.808	0	PA_with_intermediate	test	ward_and_allport	71	7.0	0.432	to_board	poldrack-single-stim	s603	False
172.817	1.0	2.272	172.816	0	PA_with_intermediate	test	ward_and_allport	-1	7.0	n/a	feedback	poldrack-single-stim	s603	False
175.092	4.694	4.694	179.786	1	PA_with_intermediate	test	ward_and_allport	89	8.0	4.694	to_hand	poldrack-single-stim	s603	False
179.787	0.1	0.459	180.246	0	PA_with_intermediate	test	ward_and_allport	82	8.0	0.459	to_board	poldrack-single-stim	s603	False
180.25	0.1	1.226	181.476	0	PA_with_intermediate	test	ward_and_allport	89	8.0	1.226	to_hand	poldrack-single-stim	s603	False
181.477	0.1	0.655	182.132	0	PA_with_intermediate	test	ward_and_allport	71	8.0	0.655	to_board	poldrack-single-stim	s603	False
182.135	0.1	0.993	183.128	0	PA_with_intermediate	test	ward_and_allport	82	8.0	0.993	to_hand	poldrack-single-stim	s603	False
183.129	0.1	0.775	183.904	0	PA_with_intermediate	test	ward_and_allport	71	8.0	0.775	to_board	poldrack-single-stim	s603	False
183.907	0.1	1.447	185.354	0	PA_with_intermediate	test	ward_and_allport	71	8.0	1.447	to_hand	poldrack-single-stim	s603	False
185.356	0.1	0.502	185.858	0	PA_with_intermediate	test	ward_and_allport	89	8.0	0.502	to_board	poldrack-single-stim	s603	False
185.865	1.0	2.136	185.864	0	PA_with_intermediate	test	ward_and_allport	-1	8.0	n/a	feedback	poldrack-single-stim	s603	False
188.004	4.219	4.219	192.223	1	PA_with_intermediate	test	ward_and_allport	71	9.0	4.219	to_hand	poldrack-single-stim	s603	False
192.224	0.1	0.544	192.768	0	PA_with_intermediate	test	ward_and_allport	89	9.0	0.544	to_board	poldrack-single-stim	s603	False
192.774	0.1	0.68	193.454	0	PA_with_intermediate	test	ward_and_allport	71	9.0	0.68	to_hand	poldrack-single-stim	s603	False
193.454	0.1	0.378	193.832	0	PA_with_intermediate	test	ward_and_allport	82	9.0	0.378	to_board	poldrack-single-stim	s603	False
193.837	0.1	1.353	195.19	0	PA_with_intermediate	test	ward_and_allport	89	9.0	1.353	to_hand	poldrack-single-stim	s603	False
195.191	0.1	0.451	195.642	0	PA_with_intermediate	test	ward_and_allport	82	9.0	0.451	to_board	poldrack-single-stim	s603	False
195.649	1.0	2.0	195.648	0	PA_with_intermediate	test	ward_and_allport	-1	9.0	n/a	feedback	poldrack-single-stim	s603	False
197.653	4.998	4.998	202.651	1	PA_with_intermediate	test	ward_and_allport	82	10.0	4.998	to_hand	poldrack-single-stim	s603	False
202.653	0.1	0.356	203.009	0	PA_with_intermediate	test	ward_and_allport	89	10.0	0.356	to_board	poldrack-single-stim	s603	False
203.013	0.1	1.779	204.792	0	PA_with_intermediate	test	ward_and_allport	82	10.0	1.779	to_hand	poldrack-single-stim	s603	False
204.794	0.1	0.44	205.234	0	PA_with_intermediate	test	ward_and_allport	71	10.0	0.44	to_board	poldrack-single-stim	s603	False
205.238	0.1	1.428	206.666	0	PA_with_intermediate	test	ward_and_allport	89	10.0	1.428	to_hand	poldrack-single-stim	s603	False
206.667	0.1	1.022	207.689	0	PA_with_intermediate	test	ward_and_allport	71	10.0	1.022	to_board	poldrack-single-stim	s603	False
207.697	1.0	2.0	207.696	0	PA_with_intermediate	test	ward_and_allport	-1	10.0	n/a	feedback	poldrack-single-stim	s603	False
209.701	4.023	4.023	213.724	1	PA_without_intermediate	test	ward_and_allport	89	11.0	4.023	to_hand	poldrack-single-stim	s603	False
213.725	0.1	1.195	214.92	0	PA_without_intermediate	test	ward_and_allport	71	11.0	1.195	to_board	poldrack-single-stim	s603	False
214.924	0.1	1.118	216.042	0	PA_without_intermediate	test	ward_and_allport	89	11.0	1.118	to_hand	poldrack-single-stim	s603	False
216.043	0.1	0.625	216.668	0	PA_without_intermediate	test	ward_and_allport	82	11.0	0.625	to_board	poldrack-single-stim	s603	False
216.672	0.1	0.706	217.378	0	PA_without_intermediate	test	ward_and_allport	89	11.0	0.706	to_hand	poldrack-single-stim	s603	False
217.379	0.1	0.486	217.865	0	PA_without_intermediate	test	ward_and_allport	71	11.0	0.486	to_board	poldrack-single-stim	s603	False
217.87	1.0	2.408	217.869	0	PA_without_intermediate	test	ward_and_allport	-1	11.0	n/a	feedback	poldrack-single-stim	s603	False
220.282	4.406	4.406	224.688	1	PA_with_intermediate	test	ward_and_allport	89	12.0	4.406	to_hand	poldrack-single-stim	s603	False
224.689	0.1	4.144	228.833	0	PA_with_intermediate	test	ward_and_allport	71	12.0	4.144	to_board	poldrack-single-stim	s603	False
228.838	0.1	0.86	229.698	0	PA_with_intermediate	test	ward_and_allport	89	12.0	0.86	to_hand	poldrack-single-stim	s603	False
229.7	0.1	0.411	230.111	0	PA_with_intermediate	test	ward_and_allport	82	12.0	0.411	to_board	poldrack-single-stim	s603	False
230.116	0.1	1.417	231.533	0	PA_with_intermediate	test	ward_and_allport	71	12.0	1.417	to_hand	poldrack-single-stim	s603	False
231.534	0.1	0.433	231.967	0	PA_with_intermediate	test	ward_and_allport	89	12.0	0.433	to_board	poldrack-single-stim	s603	False
231.973	1.0	3.768	231.972	0	PA_with_intermediate	test	ward_and_allport	-1	12.0	n/a	feedback	poldrack-single-stim	s603	False
235.745	4.6	4.6	240.345	1	PA_with_intermediate	test	ward_and_allport	89	13.0	4.6	to_hand	poldrack-single-stim	s603	False
240.346	0.1	0.433	240.779	0	PA_with_intermediate	test	ward_and_allport	71	13.0	0.433	to_board	poldrack-single-stim	s603	False
240.783	0.1	0.944	241.727	0	PA_with_intermediate	test	ward_and_allport	89	13.0	0.944	to_hand	poldrack-single-stim	s603	False
241.728	0.1	0.536	242.264	0	PA_with_intermediate	test	ward_and_allport	82	13.0	0.536	to_board	poldrack-single-stim	s603	False
242.269	0.1	0.453	242.722	0	PA_with_intermediate	test	ward_and_allport	71	13.0	0.453	to_hand	poldrack-single-stim	s603	False
242.723	0.1	0.56	243.283	0	PA_with_intermediate	test	ward_and_allport	82	13.0	0.56	to_board	poldrack-single-stim	s603	False
243.289	1.0	2.68	243.288	0	PA_with_intermediate	test	ward_and_allport	-1	13.0	n/a	feedback	poldrack-single-stim	s603	False
245.972	3.13	3.13	249.102	1	PA_without_intermediate	test	ward_and_allport	89	14.0	3.13	to_hand	poldrack-single-stim	s603	False
249.103	0.1	0.628	249.731	0	PA_without_intermediate	test	ward_and_allport	71	14.0	0.628	to_board	poldrack-single-stim	s603	False
249.735	0.1	0.95	250.685	0	PA_without_intermediate	test	ward_and_allport	89	14.0	0.95	to_hand	poldrack-single-stim	s603	False
250.686	0.1	0.509	251.195	0	PA_without_intermediate	test	ward_and_allport	71	14.0	0.509	to_board	poldrack-single-stim	s603	False
251.199	0.1	0.652	251.851	0	PA_without_intermediate	test	ward_and_allport	89	14.0	0.652	to_hand	poldrack-single-stim	s603	False
251.852	0.1	0.733	252.585	0	PA_without_intermediate	test	ward_and_allport	82	14.0	0.733	to_board	poldrack-single-stim	s603	False
252.59	1.0	3.224	252.589	0	PA_without_intermediate	test	ward_and_allport	-1	14.0	n/a	feedback	poldrack-single-stim	s603	False
260.82	5.96	5.96	266.78	1	PA_without_intermediate	test	ward_and_allport	89	15.0	5.96	to_hand	poldrack-single-stim	s603	False
266.781	0.1	0.545	267.326	0	PA_without_intermediate	test	ward_and_allport	82	15.0	0.545	to_board	poldrack-single-stim	s603	False
267.331	0.1	1.145	268.476	0	PA_without_intermediate	test	ward_and_allport	89	15.0	1.145	to_hand	poldrack-single-stim	s603	False
268.477	0.1	0.449	268.926	0	PA_without_intermediate	test	ward_and_allport	71	15.0	0.449	to_board	poldrack-single-stim	s603	False
268.93	0.1	0.682	269.612	0	PA_without_intermediate	test	ward_and_allport	89	15.0	0.682	to_hand	poldrack-single-stim	s603	False
269.614	0.1	0.498	270.112	0	PA_without_intermediate	test	ward_and_allport	82	15.0	0.498	to_board	poldrack-single-stim	s603	False
270.116	1.0	3.36	270.115	0	PA_without_intermediate	test	ward_and_allport	-1	15.0	n/a	feedback	poldrack-single-stim	s603	False
273.48	4.27	4.27	277.75	1	PA_without_intermediate	test	ward_and_allport	71	16.0	4.27	to_hand	poldrack-single-stim	s603	False
277.752	0.1	0.265	278.017	0	PA_without_intermediate	test	ward_and_allport	89	16.0	0.265	to_board	poldrack-single-stim	s603	False
278.023	0.1	0.933	278.956	0	PA_without_intermediate	test	ward_and_allport	71	16.0	0.933	to_hand	poldrack-single-stim	s603	False
278.957	0.1	0.403	279.36	0	PA_without_intermediate	test	ward_and_allport	82	16.0	0.403	to_board	poldrack-single-stim	s603	False
279.365	0.1	0.499	279.864	0	PA_without_intermediate	test	ward_and_allport	71	16.0	0.499	to_hand	poldrack-single-stim	s603	False
279.865	0.1	0.249	280.114	0	PA_without_intermediate	test	ward_and_allport	89	16.0	0.249	to_board	poldrack-single-stim	s603	False
280.118	1.0	2.0	280.117	0	PA_without_intermediate	test	ward_and_allport	-1	16.0	n/a	feedback	poldrack-single-stim	s603	False
282.122	4.73	4.73	286.852	1	PA_without_intermediate	test	ward_and_allport	89	17.0	4.73	to_hand	poldrack-single-stim	s603	False
286.853	0.1	0.581	287.434	0	PA_without_intermediate	test	ward_and_allport	71	17.0	0.581	to_board	poldrack-single-stim	s603	False
287.439	0.1	0.775	288.214	0	PA_without_intermediate	test	ward_and_allport	89	17.0	0.775	to_hand	poldrack-single-stim	s603	False
288.216	0.1	0.737	288.953	0	PA_without_intermediate	test	ward_and_allport	71	17.0	0.737	to_board	poldrack-single-stim	s603	False
288.958	0.1	0.316	289.274	0	PA_without_intermediate	test	ward_and_allport	89	17.0	0.316	to_hand	poldrack-single-stim	s603	False
289.275	0.1	0.472	289.747	0	PA_without_intermediate	test	ward_and_allport	82	17.0	0.472	to_board	poldrack-single-stim	s603	False
289.753	1.0	2.408	289.752	0	PA_without_intermediate	test	ward_and_allport	-1	17.0	n/a	feedback	poldrack-single-stim	s603	False
292.165	2.667	2.667	294.832	1	PA_with_intermediate	test	ward_and_allport	89	18.0	2.667	to_hand	poldrack-single-stim	s603	False
294.834	0.1	1.119	295.953	0	PA_with_intermediate	test	ward_and_allport	71	18.0	1.119	to_board	poldrack-single-stim	s603	False
295.958	0.1	0.404	296.362	0	PA_with_intermediate	test	ward_and_allport	89	18.0	0.404	to_hand	poldrack-single-stim	s603	False
296.363	0.1	0.628	296.991	0	PA_with_intermediate	test	ward_and_allport	82	18.0	0.628	to_board	poldrack-single-stim	s603	False
296.995	0.1	1.408	298.403	0	PA_with_intermediate	test	ward_and_allport	71	18.0	1.408	to_hand	poldrack-single-stim	s603	False
298.404	0.1	0.322	298.726	0	PA_with_intermediate	test	ward_and_allport	89	18.0	0.322	to_board	poldrack-single-stim	s603	False
298.733	1.0	2.136	298.732	0	PA_with_intermediate	test	ward_and_allport	-1	18.0	n/a	feedback	poldrack-single-stim	s603	False
300.874	1.81	1.81	302.684	1	PA_without_intermediate	test	ward_and_allport	71	19.0	1.81	to_hand	poldrack-single-stim	s603	False
302.686	0.1	0.308	302.994	0	PA_without_intermediate	test	ward_and_allport	89	19.0	0.308	to_board	poldrack-single-stim	s603	False
302.999	0.1	0.389	303.388	0	PA_without_intermediate	test	ward_and_allport	71	19.0	0.389	to_hand	poldrack-single-stim	s603	False
303.388	0.1	0.316	303.704	0	PA_without_intermediate	test	ward_and_allport	82	19.0	0.316	to_board	poldrack-single-stim	s603	False
303.71	0.1	0.273	303.983	0	PA_without_intermediate	test	ward_and_allport	71	19.0	0.273	to_hand	poldrack-single-stim	s603	False
303.984	0.1	0.34	304.324	0	PA_without_intermediate	test	ward_and_allport	89	19.0	0.34	to_board	poldrack-single-stim	s603	False
304.334	1.0	5.128	304.333	0	PA_without_intermediate	test	ward_and_allport	-1	19.0	n/a	feedback	poldrack-single-stim	s603	False
309.467	2.891	2.891	312.358	1	PA_without_intermediate	test	ward_and_allport	82	20.0	2.891	to_hand	poldrack-single-stim	s603	False
312.36	0.1	0.245	312.605	0	PA_without_intermediate	test	ward_and_allport	89	20.0	0.245	to_board	poldrack-single-stim	s603	False
312.61	0.1	1.893	314.503	0	PA_without_intermediate	test	ward_and_allport	82	20.0	1.893	to_hand	poldrack-single-stim	s603	False
314.504	0.1	0.429	314.933	0	PA_without_intermediate	test	ward_and_allport	71	20.0	0.429	to_board	poldrack-single-stim	s603	False
314.938	0.1	2.453	317.391	0	PA_without_intermediate	test	ward_and_allport	82	20.0	2.453	to_hand	poldrack-single-stim	s603	False
317.393	0.1	0.453	317.846	0	PA_without_intermediate	test	ward_and_allport	89	20.0	0.453	to_board	poldrack-single-stim	s603	False
317.854	1.0	2.136	317.853	0	PA_without_intermediate	test	ward_and_allport	-1	20.0	n/a	feedback	poldrack-single-stim	s603	False
319.995	1.3	1.3	321.295	1	PA_without_intermediate	test	ward_and_allport	71	21.0	1.3	to_hand	poldrack-single-stim	s603	False
321.296	0.1	0.543	321.839	0	PA_without_intermediate	test	ward_and_allport	82	21.0	0.543	to_board	poldrack-single-stim	s603	False
321.844	0.1	0.627	322.471	0	PA_without_intermediate	test	ward_and_allport	71	21.0	0.627	to_hand	poldrack-single-stim	s603	False
322.472	0.1	0.416	322.888	0	PA_without_intermediate	test	ward_and_allport	82	21.0	0.416	to_board	poldrack-single-stim	s603	False
322.894	0.1	1.337	324.231	0	PA_without_intermediate	test	ward_and_allport	71	21.0	1.337	to_hand	poldrack-single-stim	s603	False
324.232	0.1	0.216	324.448	0	PA_without_intermediate	test	ward_and_allport	89	21.0	0.216	to_board	poldrack-single-stim	s603	False
324.454	1.0	5.264	324.453	0	PA_without_intermediate	test	ward_and_allport	-1	21.0	n/a	feedback	poldrack-single-stim	s603	False
329.724	1.887	1.887	331.611	1	PA_with_intermediate	test	ward_and_allport	71	22.0	1.887	to_hand	poldrack-single-stim	s603	False
331.613	0.1	0.621	332.234	0	PA_with_intermediate	test	ward_and_allport	82	22.0	0.621	to_board	poldrack-single-stim	s603	False
332.24	0.1	0.363	332.603	0	PA_with_intermediate	test	ward_and_allport	71	22.0	0.363	to_hand	poldrack-single-stim	s603	False
332.604	0.1	0.277	332.881	0	PA_with_intermediate	test	ward_and_allport	89	22.0	0.277	to_board	poldrack-single-stim	s603	False
332.887	0.1	0.817	333.704	0	PA_with_intermediate	test	ward_and_allport	82	22.0	0.817	to_hand	poldrack-single-stim	s603	False
333.705	0.1	0.078	333.783	0	PA_with_intermediate	test	ward_and_allport	71	22.0	0.078	to_board	poldrack-single-stim	s603	False
333.789	1.0	4.04	333.788	0	PA_with_intermediate	test	ward_and_allport	-1	22.0	n/a	feedback	poldrack-single-stim	s603	False
337.835	3.011	3.011	340.846	1	PA_with_intermediate	test	ward_and_allport	71	23.0	3.011	to_hand	poldrack-single-stim	s603	False
340.847	0.1	0.446	341.293	0	PA_with_intermediate	test	ward_and_allport	89	23.0	0.446	to_board	poldrack-single-stim	s603	False
341.299	0.1	0.32	341.619	0	PA_with_intermediate	test	ward_and_allport	71	23.0	0.32	to_hand	poldrack-single-stim	s603	False
341.62	0.1	0.256	341.876	0	PA_with_intermediate	test	ward_and_allport	82	23.0	0.256	to_board	poldrack-single-stim	s603	False
341.882	0.1	0.991	342.873	0	PA_with_intermediate	test	ward_and_allport	89	23.0	0.991	to_hand	poldrack-single-stim	s603	False
342.874	0.1	0.417	343.291	0	PA_with_intermediate	test	ward_and_allport	82	23.0	0.417	to_board	poldrack-single-stim	s603	False
343.298	1.0	2.136	343.297	0	PA_with_intermediate	test	ward_and_allport	-1	23.0	n/a	feedback	poldrack-single-stim	s603	False
345.443	3.018	3.018	348.461	1	PA_with_intermediate	test	ward_and_allport	82	24.0	3.018	to_hand	poldrack-single-stim	s603	False
348.461	0.1	1.19	349.651	0	PA_with_intermediate	test	ward_and_allport	71	24.0	1.19	to_board	poldrack-single-stim	s603	False
349.66	0.1	1.808	351.468	0	PA_with_intermediate	test	ward_and_allport	82	24.0	1.808	to_hand	poldrack-single-stim	s603	False
351.469	0.1	0.486	351.955	0	PA_with_intermediate	test	ward_and_allport	89	24.0	0.486	to_board	poldrack-single-stim	s603	False
351.961	0.1	2.971	354.932	0	PA_with_intermediate	test	ward_and_allport	71	24.0	2.971	to_hand	poldrack-single-stim	s603	False
354.933	0.1	0.257	355.19	0	PA_with_intermediate	test	ward_and_allport	82	24.0	0.257	to_board	poldrack-single-stim	s603	False
355.197	1.0	2.408	355.196	0	PA_with_intermediate	test	ward_and_allport	-1	24.0	n/a	feedback	poldrack-single-stim	s603	False
357.612	2.52	2.52	360.132	1	PA_without_intermediate	test	ward_and_allport	89	25.0	2.52	to_hand	poldrack-single-stim	s603	False
360.133	0.1	0.245	360.378	0	PA_without_intermediate	test	ward_and_allport	82	25.0	0.245	to_board	poldrack-single-stim	s603	False
360.384	0.1	0.892	361.276	0	PA_without_intermediate	test	ward_and_allport	89	25.0	0.892	to_hand	poldrack-single-stim	s603	False
361.277	0.1	0.898	362.175	0	PA_without_intermediate	test	ward_and_allport	82	25.0	0.898	to_board	poldrack-single-stim	s603	False
362.18	0.1	0.702	362.882	0	PA_without_intermediate	test	ward_and_allport	89	25.0	0.702	to_hand	poldrack-single-stim	s603	False
362.884	0.1	0.495	363.379	0	PA_without_intermediate	test	ward_and_allport	71	25.0	0.495	to_board	poldrack-single-stim	s603	False
363.386	1.0	2.68	363.385	0	PA_without_intermediate	test	ward_and_allport	-1	25.0	n/a	feedback	poldrack-single-stim	s603	False
366.073	2.756	2.756	368.829	1	PA_with_intermediate	test	ward_and_allport	89	26.0	2.756	to_hand	poldrack-single-stim	s603	False
368.83	0.1	0.331	369.161	0	PA_with_intermediate	test	ward_and_allport	71	26.0	0.331	to_board	poldrack-single-stim	s603	False
369.168	0.1	0.647	369.815	0	PA_with_intermediate	test	ward_and_allport	89	26.0	0.647	to_hand	poldrack-single-stim	s603	False
369.816	0.1	0.36	370.176	0	PA_with_intermediate	test	ward_and_allport	82	26.0	0.36	to_board	poldrack-single-stim	s603	False
370.183	0.1	2.841	373.024	0	PA_with_intermediate	test	ward_and_allport	71	26.0	2.841	to_hand	poldrack-single-stim	s603	False
373.026	0.1	0.478	373.504	0	PA_with_intermediate	test	ward_and_allport	82	26.0	0.478	to_board	poldrack-single-stim	s603	False
373.51	1.0	4.72	373.509	0	PA_with_intermediate	test	ward_and_allport	-1	26.0	n/a	feedback	poldrack-single-stim	s603	False
378.237	3.148	3.148	381.385	1	PA_without_intermediate	test	ward_and_allport	82	27.0	3.148	to_hand	poldrack-single-stim	s603	False
381.386	0.1	0.267	381.653	0	PA_without_intermediate	test	ward_and_allport	71	27.0	0.267	to_board	poldrack-single-stim	s603	False
381.66	0.1	1.51	383.17	0	PA_without_intermediate	test	ward_and_allport	82	27.0	1.51	to_hand	poldrack-single-stim	s603	False
383.171	0.1	0.202	383.373	0	PA_without_intermediate	test	ward_and_allport	89	27.0	0.202	to_board	poldrack-single-stim	s603	False
383.38	0.1	0.994	384.374	0	PA_without_intermediate	test	ward_and_allport	82	27.0	0.994	to_hand	poldrack-single-stim	s603	False
384.375	0.1	0.761	385.136	0	PA_without_intermediate	test	ward_and_allport	71	27.0	0.761	to_board	poldrack-single-stim	s603	False
385.145	1.0	3.224	385.144	0	PA_without_intermediate	test	ward_and_allport	-1	27.0	n/a	feedback	poldrack-single-stim	s603	False
388.376	1.889	1.889	390.265	1	PA_without_intermediate	test	ward_and_allport	89	28.0	1.889	to_hand	poldrack-single-stim	s603	False
390.266	0.1	0.458	390.724	0	PA_without_intermediate	test	ward_and_allport	71	28.0	0.458	to_board	poldrack-single-stim	s603	False
390.732	0.1	0.809	391.541	0	PA_without_intermediate	test	ward_and_allport	89	28.0	0.809	to_hand	poldrack-single-stim	s603	False
391.543	0.1	0.248	391.791	0	PA_without_intermediate	test	ward_and_allport	82	28.0	0.248	to_board	poldrack-single-stim	s603	False
391.798	0.1	0.495	392.293	0	PA_without_intermediate	test	ward_and_allport	89	28.0	0.495	to_hand	poldrack-single-stim	s603	False
392.295	0.1	0.235	392.53	0	PA_without_intermediate	test	ward_and_allport	71	28.0	0.235	to_board	poldrack-single-stim	s603	False
392.539	1.0	2.272	392.538	0	PA_without_intermediate	test	ward_and_allport	-1	28.0	n/a	feedback	poldrack-single-stim	s603	False
394.826	2.742	2.742	397.568	1	PA_with_intermediate	test	ward_and_allport	89	29.0	2.742	to_hand	poldrack-single-stim	s603	False
397.57	0.1	0.766	398.336	0	PA_with_intermediate	test	ward_and_allport	82	29.0	0.766	to_board	poldrack-single-stim	s603	False
398.343	0.1	0.765	399.108	0	PA_with_intermediate	test	ward_and_allport	89	29.0	0.765	to_hand	poldrack-single-stim	s603	False
399.109	0.1	0.355	399.464	0	PA_with_intermediate	test	ward_and_allport	71	29.0	0.355	to_board	poldrack-single-stim	s603	False
399.471	0.1	1.265	400.736	0	PA_with_intermediate	test	ward_and_allport	82	29.0	1.265	to_hand	poldrack-single-stim	s603	False
400.738	0.1	0.257	400.995	0	PA_with_intermediate	test	ward_and_allport	71	29.0	0.257	to_board	poldrack-single-stim	s603	False
401.003	1.0	3.632	401.002	0	PA_with_intermediate	test	ward_and_allport	-1	29.0	n/a	feedback	poldrack-single-stim	s603	False
409.645	2.328	2.328	411.973	1	PA_without_intermediate	test	ward_and_allport	71	30.0	2.328	to_hand	poldrack-single-stim	s603	False
411.975	0.1	0.794	412.769	0	PA_without_intermediate	test	ward_and_allport	82	30.0	0.794	to_board	poldrack-single-stim	s603	False
412.776	0.1	0.52	413.296	0	PA_without_intermediate	test	ward_and_allport	71	30.0	0.52	to_hand	poldrack-single-stim	s603	False
413.298	0.1	0.27	413.568	0	PA_without_intermediate	test	ward_and_allport	82	30.0	0.27	to_board	poldrack-single-stim	s603	False
413.575	0.1	1.171	414.746	0	PA_without_intermediate	test	ward_and_allport	71	30.0	1.171	to_hand	poldrack-single-stim	s603	False
414.746	0.1	0.236	414.982	0	PA_without_intermediate	test	ward_and_allport	89	30.0	0.236	to_board	poldrack-single-stim	s603	False
414.99	1.0	2.408	414.989	0	PA_without_intermediate	test	ward_and_allport	-1	30.0	n/a	feedback	poldrack-single-stim	s603	False
417.405	3.015	3.015	420.42	1	PA_without_intermediate	test	ward_and_allport	82	31.0	3.015	to_hand	poldrack-single-stim	s603	False
420.421	0.1	0.194	420.615	0	PA_without_intermediate	test	ward_and_allport	89	31.0	0.194	to_board	poldrack-single-stim	s603	False
420.623	0.1	1.174	421.797	0	PA_without_intermediate	test	ward_and_allport	82	31.0	1.174	to_hand	poldrack-single-stim	s603	False
421.799	0.1	0.207	422.006	0	PA_without_intermediate	test	ward_and_allport	71	31.0	0.207	to_board	poldrack-single-stim	s603	False
422.016	0.1	0.075	422.091	0	PA_without_intermediate	test	ward_and_allport	89	31.0	0.075	to_hand	poldrack-single-stim	s603	False
422.092	0.1	1.21	423.302	0	PA_without_intermediate	test	ward_and_allport	89	31.0	1.21	to_board	poldrack-single-stim	s603	False
423.313	0.1	0.737	424.05	0	PA_without_intermediate	test	ward_and_allport	71	31.0	0.737	to_hand	poldrack-single-stim	s603	False
424.051	0.1	0.417	424.468	0	PA_without_intermediate	test	ward_and_allport	89	31.0	0.417	to_board	poldrack-single-stim	s603	False
424.475	0.1	1.238	425.713	0	PA_without_intermediate	test	ward_and_allport	82	31.0	1.238	to_hand	poldrack-single-stim	s603	False
425.715	0.1	0.789	426.504	0	PA_without_intermediate	test	ward_and_allport	71	31.0	0.789	to_board	poldrack-single-stim	s603	False
426.513	1.0	2.0	426.512	0	PA_without_intermediate	test	ward_and_allport	-1	31.0	n/a	feedback	poldrack-single-stim	s603	False
428.522	1.605	1.605	430.127	1	PA_with_intermediate	test	ward_and_allport	71	32.0	1.605	to_hand	poldrack-single-stim	s603	False
430.128	0.1	1.511	431.639	0	PA_with_intermediate	test	ward_and_allport	89	32.0	1.511	to_board	poldrack-single-stim	s603	False
431.647	0.1	0.366	432.013	0	PA_with_intermediate	test	ward_and_allport	71	32.0	0.366	to_hand	poldrack-single-stim	s603	False
432.014	0.1	0.24	432.254	0	PA_with_intermediate	test	ward_and_allport	82	32.0	0.24	to_board	poldrack-single-stim	s603	False
432.263	0.1	1.021	433.284	0	PA_with_intermediate	test	ward_and_allport	89	32.0	1.021	to_hand	poldrack-single-stim	s603	False
433.284	0.1	0.243	433.527	0	PA_with_intermediate	test	ward_and_allport	71	32.0	0.243	to_board	poldrack-single-stim	s603	False
433.537	1.0	2.0	433.536	0	PA_with_intermediate	test	ward_and_allport	-1	32.0	n/a	feedback	poldrack-single-stim	s603	False
435.543	3.399	3.399	438.942	1	PA_with_intermediate	test	ward_and_allport	82	33.0	3.399	to_hand	poldrack-single-stim	s603	False
438.944	0.1	0.756	439.7	0	PA_with_intermediate	test	ward_and_allport	71	33.0	0.756	to_board	poldrack-single-stim	s603	False
439.706	0.1	1.021	440.727	0	PA_with_intermediate	test	ward_and_allport	82	33.0	1.021	to_hand	poldrack-single-stim	s603	False
440.728	0.1	0.47	441.198	0	PA_with_intermediate	test	ward_and_allport	89	33.0	0.47	to_board	poldrack-single-stim	s603	False
441.206	0.1	0.781	441.987	0	PA_with_intermediate	test	ward_and_allport	71	33.0	0.781	to_hand	poldrack-single-stim	s603	False
441.988	0.1	0.43	442.418	0	PA_with_intermediate	test	ward_and_allport	89	33.0	0.43	to_board	poldrack-single-stim	s603	False
442.427	1.0	2.0	442.426	0	PA_with_intermediate	test	ward_and_allport	-1	33.0	n/a	feedback	poldrack-single-stim	s603	False
444.438	3.548	3.548	447.986	1	PA_with_intermediate	test	ward_and_allport	89	34.0	3.548	to_hand	poldrack-single-stim	s603	False
447.987	0.1	1.495	449.482	0	PA_with_intermediate	test	ward_and_allport	82	34.0	1.495	to_board	poldrack-single-stim	s603	False
449.49	0.1	0.612	450.102	0	PA_with_intermediate	test	ward_and_allport	89	34.0	0.612	to_hand	poldrack-single-stim	s603	False
450.104	0.1	0.385	450.489	0	PA_with_intermediate	test	ward_and_allport	71	34.0	0.385	to_board	poldrack-single-stim	s603	False
450.498	0.1	0.533	451.031	0	PA_with_intermediate	test	ward_and_allport	82	34.0	0.533	to_hand	poldrack-single-stim	s603	False
451.033	0.1	0.268	451.301	0	PA_with_intermediate	test	ward_and_allport	89	34.0	0.268	to_board	poldrack-single-stim	s603	False
451.315	1.0	2.408	451.314	0	PA_with_intermediate	test	ward_and_allport	-1	34.0	n/a	feedback	poldrack-single-stim	s603	False
453.731	2.739	2.739	456.47	1	PA_without_intermediate	test	ward_and_allport	82	35.0	2.739	to_hand	poldrack-single-stim	s603	False
456.471	0.1	0.943	457.414	0	PA_without_intermediate	test	ward_and_allport	71	35.0	0.943	to_board	poldrack-single-stim	s603	False
457.423	0.1	0.418	457.841	0	PA_without_intermediate	test	ward_and_allport	82	35.0	0.418	to_hand	poldrack-single-stim	s603	False
457.843	0.1	0.507	458.35	0	PA_without_intermediate	test	ward_and_allport	71	35.0	0.507	to_board	poldrack-single-stim	s603	False
458.358	0.1	0.572	458.93	0	PA_without_intermediate	test	ward_and_allport	82	35.0	0.572	to_hand	poldrack-single-stim	s603	False
458.931	0.1	0.255	459.186	0	PA_without_intermediate	test	ward_and_allport	89	35.0	0.255	to_board	poldrack-single-stim	s603	False
459.195	1.0	2.816	459.194	0	PA_without_intermediate	test	ward_and_allport	-1	35.0	n/a	feedback	poldrack-single-stim	s603	False
462.02	3.172	3.172	465.192	1	PA_with_intermediate	test	ward_and_allport	89	36.0	3.172	to_hand	poldrack-single-stim	s603	False
465.193	0.1	0.282	465.475	0	PA_with_intermediate	test	ward_and_allport	82	36.0	0.282	to_board	poldrack-single-stim	s603	False
465.481	0.1	0.64	466.121	0	PA_with_intermediate	test	ward_and_allport	89	36.0	0.64	to_hand	poldrack-single-stim	s603	False
466.122	0.1	0.443	466.565	0	PA_with_intermediate	test	ward_and_allport	71	36.0	0.443	to_board	poldrack-single-stim	s603	False
466.572	0.1	0.303	466.875	0	PA_with_intermediate	test	ward_and_allport	89	36.0	0.303	to_hand	poldrack-single-stim	s603	False
466.877	0.1	1.583	468.46	0	PA_with_intermediate	test	ward_and_allport	89	36.0	1.583	to_board	poldrack-single-stim	s603	False
468.469	0.1	0.848	469.317	0	PA_with_intermediate	test	ward_and_allport	82	36.0	0.848	to_hand	poldrack-single-stim	s603	False
469.32	0.1	1.008	470.328	0	PA_with_intermediate	test	ward_and_allport	71	36.0	1.008	to_board	poldrack-single-stim	s603	False
470.34	1.0	4.176	470.339	0	PA_with_intermediate	test	ward_and_allport	-1	36.0	n/a	feedback	poldrack-single-stim	s603	False
474.525	2.109	2.109	476.634	1	PA_with_intermediate	test	ward_and_allport	71	37.0	2.109	to_hand	poldrack-single-stim	s603	False
476.636	0.1	0.53	477.166	0	PA_with_intermediate	test	ward_and_allport	82	37.0	0.53	to_board	poldrack-single-stim	s603	False
477.173	0.1	0.495	477.668	0	PA_with_intermediate	test	ward_and_allport	71	37.0	0.495	to_hand	poldrack-single-stim	s603	False
477.669	0.1	0.48	478.149	0	PA_with_intermediate	test	ward_and_allport	89	37.0	0.48	to_board	poldrack-single-stim	s603	False
478.157	0.1	0.762	478.919	0	PA_with_intermediate	test	ward_and_allport	82	37.0	0.762	to_hand	poldrack-single-stim	s603	False
478.921	0.1	0.722	479.643	0	PA_with_intermediate	test	ward_and_allport	89	37.0	0.722	to_board	poldrack-single-stim	s603	False
479.654	1.0	3.36	479.653	0	PA_with_intermediate	test	ward_and_allport	-1	37.0	n/a	feedback	poldrack-single-stim	s603	False
483.021	4.219	4.219	487.24	1	PA_with_intermediate	test	ward_and_allport	82	38.0	4.219	to_hand	poldrack-single-stim	s603	False
487.241	0.1	0.29	487.531	0	PA_with_intermediate	test	ward_and_allport	89	38.0	0.29	to_board	poldrack-single-stim	s603	False
487.537	0.1	1.567	489.104	0	PA_with_intermediate	test	ward_and_allport	82	38.0	1.567	to_hand	poldrack-single-stim	s603	False
489.105	0.1	0.449	489.554	0	PA_with_intermediate	test	ward_and_allport	71	38.0	0.449	to_board	poldrack-single-stim	s603	False
489.562	0.1	1.106	490.668	0	PA_with_intermediate	test	ward_and_allport	89	38.0	1.106	to_hand	poldrack-single-stim	s603	False
490.668	0.1	0.417	491.085	0	PA_with_intermediate	test	ward_and_allport	71	38.0	0.417	to_board	poldrack-single-stim	s603	False
491.094	0.1	1.188	492.282	0	PA_with_intermediate	test	ward_and_allport	71	38.0	1.188	to_hand	poldrack-single-stim	s603	False
492.283	0.1	0.484	492.767	0	PA_with_intermediate	test	ward_and_allport	82	38.0	0.484	to_board	poldrack-single-stim	s603	False
492.779	1.0	2.0	492.778	0	PA_with_intermediate	test	ward_and_allport	-1	38.0	n/a	feedback	poldrack-single-stim	s603	False
494.789	4.078	4.078	498.867	1	PA_without_intermediate	test	ward_and_allport	82	39.0	4.078	to_hand	poldrack-single-stim	s603	False
498.869	0.1	0.375	499.244	0	PA_without_intermediate	test	ward_and_allport	71	39.0	0.375	to_board	poldrack-single-stim	s603	False
499.252	0.1	1.555	500.807	0	PA_without_intermediate	test	ward_and_allport	82	39.0	1.555	to_hand	poldrack-single-stim	s603	False
500.808	0.1	0.492	501.3	0	PA_without_intermediate	test	ward_and_allport	71	39.0	0.492	to_board	poldrack-single-stim	s603	False
501.307	0.1	0.512	501.819	0	PA_without_intermediate	test	ward_and_allport	82	39.0	0.512	to_hand	poldrack-single-stim	s603	False
501.821	0.1	0.357	502.178	0	PA_without_intermediate	test	ward_and_allport	89	39.0	0.357	to_board	poldrack-single-stim	s603	False
502.19	1.0	2.408	502.189	0	PA_without_intermediate	test	ward_and_allport	-1	39.0	n/a	feedback	poldrack-single-stim	s603	False
504.607	5.094	5.094	509.701	1	PA_with_intermediate	test	ward_and_allport	71	40.0	5.094	to_hand	poldrack-single-stim	s603	False
509.703	0.1	0.397	510.1	0	PA_with_intermediate	test	ward_and_allport	82	40.0	0.397	to_board	poldrack-single-stim	s603	False
510.109	0.1	1.287	511.396	0	PA_with_intermediate	test	ward_and_allport	71	40.0	1.287	to_hand	poldrack-single-stim	s603	False
511.397	0.1	0.263	511.66	0	PA_with_intermediate	test	ward_and_allport	89	40.0	0.263	to_board	poldrack-single-stim	s603	False
511.669	0.1	0.717	512.386	0	PA_with_intermediate	test	ward_and_allport	82	40.0	0.717	to_hand	poldrack-single-stim	s603	False
512.387	0.1	0.274	512.661	0	PA_with_intermediate	test	ward_and_allport	89	40.0	0.274	to_board	poldrack-single-stim	s603	False
512.672	1.0	2.816	512.671	0	PA_with_intermediate	test	ward_and_allport	-1	40.0	n/a	feedback	poldrack-single-stim	s603	False
515.497	2.073	2.073	517.57	1	PA_without_intermediate	test	ward_and_allport	71	41.0	2.073	to_hand	poldrack-single-stim	s603	False
517.572	0.1	0.944	518.516	0	PA_without_intermediate	test	ward_and_allport	82	41.0	0.944	to_board	poldrack-single-stim	s603	False
518.523	0.1	0.859	519.382	0	PA_without_intermediate	test	ward_and_allport	71	41.0	0.859	to_hand	poldrack-single-stim	s603	False
519.383	0.1	0.26	519.643	0	PA_without_intermediate	test	ward_and_allport	89	41.0	0.26	to_board	poldrack-single-stim	s603	False
519.651	0.1	0.601	520.252	0	PA_without_intermediate	test	ward_and_allport	71	41.0	0.601	to_hand	poldrack-single-stim	s603	False
520.253	0.1	0.245	520.498	0	PA_without_intermediate	test	ward_and_allport	82	41.0	0.245	to_board	poldrack-single-stim	s603	False
520.507	1.0	3.088	520.506	0	PA_without_intermediate	test	ward_and_allport	-1	41.0	n/a	feedback	poldrack-single-stim	s603	False
523.604	2.375	2.375	525.979	1	PA_without_intermediate	test	ward_and_allport	82	42.0	2.375	to_hand	poldrack-single-stim	s603	False
525.98	0.1	0.416	526.396	0	PA_without_intermediate	test	ward_and_allport	71	42.0	0.416	to_board	poldrack-single-stim	s603	False
526.403	0.1	1.253	527.656	0	PA_without_intermediate	test	ward_and_allport	82	42.0	1.253	to_hand	poldrack-single-stim	s603	False
527.657	0.1	0.508	528.165	0	PA_without_intermediate	test	ward_and_allport	89	42.0	0.508	to_board	poldrack-single-stim	s603	False
528.172	0.1	0.738	528.91	0	PA_without_intermediate	test	ward_and_allport	71	42.0	0.738	to_hand	poldrack-single-stim	s603	False
528.912	0.1	0.944	529.856	0	PA_without_intermediate	test	ward_and_allport	71	42.0	0.944	to_board	poldrack-single-stim	s603	False
529.866	0.1	0.421	530.287	0	PA_without_intermediate	test	ward_and_allport	82	42.0	0.421	to_hand	poldrack-single-stim	s603	False
530.288	0.1	0.233	530.521	0	PA_without_intermediate	test	ward_and_allport	71	42.0	0.233	to_board	poldrack-single-stim	s603	False
530.537	1.0	2.136	530.536	0	PA_without_intermediate	test	ward_and_allport	-1	42.0	n/a	feedback	poldrack-single-stim	s603	False
532.68	1.303	1.303	533.983	1	PA_without_intermediate	test	ward_and_allport	71	43.0	1.303	to_hand	poldrack-single-stim	s603	False
533.984	0.1	0.845	534.829	0	PA_without_intermediate	test	ward_and_allport	89	43.0	0.845	to_board	poldrack-single-stim	s603	False
534.837	0.1	1.057	535.894	0	PA_without_intermediate	test	ward_and_allport	71	43.0	1.057	to_hand	poldrack-single-stim	s603	False
535.896	0.1	0.415	536.311	0	PA_without_intermediate	test	ward_and_allport	89	43.0	0.415	to_board	poldrack-single-stim	s603	False
536.318	0.1	1.02	537.338	0	PA_without_intermediate	test	ward_and_allport	71	43.0	1.02	to_hand	poldrack-single-stim	s603	False
537.339	0.1	0.557	537.896	0	PA_without_intermediate	test	ward_and_allport	82	43.0	0.557	to_board	poldrack-single-stim	s603	False
537.905	1.0	7.168	537.904	0	PA_without_intermediate	test	ward_and_allport	-1	43.0	n/a	feedback	poldrack-single-stim	s603	False
545.084	1.861	1.861	546.945	1	PA_without_intermediate	test	ward_and_allport	71	44.0	1.861	to_hand	poldrack-single-stim	s603	False
546.947	0.1	0.387	547.334	0	PA_without_intermediate	test	ward_and_allport	89	44.0	0.387	to_board	poldrack-single-stim	s603	False
547.345	0.1	0.628	547.973	0	PA_without_intermediate	test	ward_and_allport	71	44.0	0.628	to_hand	poldrack-single-stim	s603	False
547.975	0.1	0.386	548.361	0	PA_without_intermediate	test	ward_and_allport	89	44.0	0.386	to_board	poldrack-single-stim	s603	False
548.373	0.1	0.358	548.731	0	PA_without_intermediate	test	ward_and_allport	71	44.0	0.358	to_hand	poldrack-single-stim	s603	False
548.733	0.1	0.348	549.081	0	PA_without_intermediate	test	ward_and_allport	82	44.0	0.348	to_board	poldrack-single-stim	s603	False
549.094	1.0	2.816	549.093	0	PA_without_intermediate	test	ward_and_allport	-1	44.0	n/a	feedback	poldrack-single-stim	s603	False
556.92	3.798	3.798	560.718	1	PA_with_intermediate	test	ward_and_allport	82	45.0	3.798	to_hand	poldrack-single-stim	s603	False
560.72	0.1	0.732	561.452	0	PA_with_intermediate	test	ward_and_allport	89	45.0	0.732	to_board	poldrack-single-stim	s603	False
561.462	0.1	2.01	563.472	0	PA_with_intermediate	test	ward_and_allport	82	45.0	2.01	to_hand	poldrack-single-stim	s603	False
563.473	0.1	0.411	563.884	0	PA_with_intermediate	test	ward_and_allport	71	45.0	0.411	to_board	poldrack-single-stim	s603	False
563.894	0.1	1.172	565.066	0	PA_with_intermediate	test	ward_and_allport	89	45.0	1.172	to_hand	poldrack-single-stim	s603	False
565.068	0.1	0.367	565.435	0	PA_with_intermediate	test	ward_and_allport	82	45.0	0.367	to_board	poldrack-single-stim	s603	False
565.449	1.0	2.952	565.448	0	PA_with_intermediate	test	ward_and_allport	-1	45.0	n/a	feedback	poldrack-single-stim	s603	False
