onset	duration	correct	correct_response	cue	experiment_exp_id	flanker_location	flanker_middle_direction	flanker_type	key_press	response_time	worker_id
3.521	1.7	1.0	71.0	spatial	attention_network_task	up	right	incongruent	71	0.593	s570
6.131	1.7	1.0	71.0	spatial	attention_network_task	up	right	incongruent	71	0.563	s570
8.737864	1.7	1.0	71.0	spatial	attention_network_task	up	right	congruent	71	0.459	s570
11.345728	1.7	1.0	89.0	spatial	attention_network_task	down	left	congruent	89	0.732	s570
13.953592	1.7	1.0	71.0	double	attention_network_task	down	right	incongruent	71	0.8	s570
16.562	1.7	1.0	71.0	double	attention_network_task	up	right	congruent	71	0.651	s570
19.169864	1.7	1.0	89.0	double	attention_network_task	up	left	congruent	89	0.858	s570
21.782864	1.7	1.0	89.0	spatial	attention_network_task	up	left	congruent	89	0.784	s570
24.391	1.7	1.0	89.0	double	attention_network_task	down	left	congruent	89	0.712	s570
26.999592	1.7	1.0	89.0	double	attention_network_task	down	left	incongruent	89	0.886	s570
29.607456	1.7	1.0	71.0	spatial	attention_network_task	up	right	congruent	71	0.615	s570
32.220864	1.7	1.0	89.0	spatial	attention_network_task	up	left	congruent	89	0.655	s570
34.828864	1.7	1.0	71.0	spatial	attention_network_task	up	right	congruent	71	0.532	s570
37.437	1.7	1.0	89.0	spatial	attention_network_task	down	left	incongruent	89	0.566	s570
40.051	1.7	1.0	89.0	double	attention_network_task	down	left	congruent	89	0.641	s570
42.658864	1.7	1.0	71.0	double	attention_network_task	up	right	congruent	71	0.542	s570
45.267	1.7	1.0	71.0	double	attention_network_task	down	right	congruent	71	0.64	s570
47.874864	1.7	1.0	89.0	double	attention_network_task	down	left	congruent	89	0.823	s570
50.488	1.7	1.0	89.0	double	attention_network_task	up	left	congruent	89	0.574	s570
53.095591999999996	1.7	1.0	71.0	spatial	attention_network_task	down	right	congruent	71	0.637	s570
55.705	1.7	1.0	71.0	spatial	attention_network_task	down	right	incongruent	71	0.607	s570
58.311184000000004	1.7	1.0	89.0	double	attention_network_task	down	left	incongruent	89	0.792	s570
60.92532	1.7	1.0	89.0	spatial	attention_network_task	up	left	congruent	89	0.584	s570
63.537	1.7	1.0	71.0	spatial	attention_network_task	up	right	congruent	71	0.707	s570
66.148864	1.7	1.0	71.0	spatial	attention_network_task	down	right	congruent	71	0.623	s570
68.755864	1.7	1.0	89.0	double	attention_network_task	down	left	incongruent	89	0.865	s570
71.363864	1.7	1.0	71.0	double	attention_network_task	up	right	incongruent	71	0.511	s570
73.972	1.7	1.0	71.0	double	attention_network_task	down	right	incongruent	71	0.667	s570
76.582864	1.7	1.0	71.0	spatial	attention_network_task	down	right	incongruent	71	0.502	s570
79.192048	1.7	1.0	89.0	spatial	attention_network_task	down	left	incongruent	89	0.859	s570
81.800864	1.7	1.0	71.0	double	attention_network_task	up	right	incongruent	71	0.671	s570
84.409592	1.7	1.0	71.0	double	attention_network_task	up	right	incongruent	71	0.58	s570
87.01704799999999	1.7	1.0	71.0	spatial	attention_network_task	down	right	incongruent	71	0.561	s570
89.625864	1.7	1.0	89.0	double	attention_network_task	up	left	incongruent	89	0.602	s570
92.233728	1.7	1.0	89.0	double	attention_network_task	up	left	incongruent	89	0.869	s570
94.841728	1.7	1.0	71.0	double	attention_network_task	down	right	incongruent	71	0.703	s570
97.455	1.7	1.0	71.0	double	attention_network_task	up	right	congruent	71	0.556	s570
100.063	1.7	1.0	89.0	spatial	attention_network_task	up	left	incongruent	89	0.579	s570
102.671728	1.7	1.0	89.0	spatial	attention_network_task	down	left	congruent	89	0.894	s570
105.28	1.7	1.0	89.0	spatial	attention_network_task	down	left	congruent	89	0.622	s570
107.888	1.7	1.0	71.0	spatial	attention_network_task	up	right	incongruent	71	0.735	s570
110.495728	1.7	1.0	89.0	double	attention_network_task	up	left	congruent	89	0.908	s570
113.104	1.7	1.0	89.0	spatial	attention_network_task	down	left	incongruent	89	0.748	s570
115.711864	1.7	1.0	89.0	spatial	attention_network_task	up	left	congruent	89	0.663	s570
118.32472800000001	1.7	1.0	89.0	spatial	attention_network_task	down	left	congruent	89	0.633	s570
120.933	1.7	1.0	71.0	spatial	attention_network_task	down	right	congruent	71	0.943	s570
123.544	1.7	1.0	71.0	double	attention_network_task	up	right	incongruent	71	0.721	s570
126.155	1.7	1.0	89.0	double	attention_network_task	down	left	congruent	89	0.707	s570
128.763	1.7	1.0	71.0	spatial	attention_network_task	down	right	incongruent	71	0.837	s570
131.371	1.7	1.0	71.0	double	attention_network_task	down	right	congruent	71	0.55	s570
133.985	1.7	1.0	71.0	spatial	attention_network_task	up	right	incongruent	71	0.704	s570
136.594728	1.7	1.0	71.0	double	attention_network_task	down	right	congruent	71	0.801	s570
139.205864	1.7	1.0	71.0	double	attention_network_task	down	right	incongruent	71	0.656	s570
141.818912	1.7	1.0	89.0	double	attention_network_task	down	left	incongruent	89	0.849	s570
144.427728	1.7	1.0	89.0	spatial	attention_network_task	up	left	congruent	89	0.812	s570
147.039864	1.7	1.0	89.0	spatial	attention_network_task	down	left	congruent	89	0.624	s570
149.648864	1.7	1.0	89.0	double	attention_network_task	up	left	congruent	89	0.687	s570
152.257	1.7	1.0	71.0	double	attention_network_task	down	right	congruent	71	0.655	s570
154.865	1.7	1.0	89.0	spatial	attention_network_task	up	left	incongruent	89	0.617	s570
157.473	1.7	1.0	71.0	spatial	attention_network_task	up	right	congruent	71	0.586	s570
160.087	1.7	1.0	71.0	double	attention_network_task	down	right	incongruent	71	0.669	s570
162.694864	1.7	1.0	71.0	spatial	attention_network_task	down	right	incongruent	71	0.673	s570
165.302728	1.7	1.0	89.0	double	attention_network_task	up	left	incongruent	89	0.698	s570
167.910864	1.7	1.0	71.0	spatial	attention_network_task	up	right	congruent	71	0.61	s570
181.041864	1.7	1.0	89.0	double	attention_network_task	up	left	congruent	89	0.655	s570
183.65	1.7	1.0	89.0	double	attention_network_task	up	left	incongruent	89	0.783	s570
186.259	1.7	1.0	71.0	spatial	attention_network_task	down	right	congruent	71	0.632	s570
188.866592	1.7	1.0	89.0	double	attention_network_task	down	left	congruent	89	0.668	s570
191.474456	1.7	1.0	71.0	double	attention_network_task	down	right	congruent	71	0.693	s570
194.087592	1.7	1.0	89.0	spatial	attention_network_task	down	left	incongruent	89	0.612	s570
196.696	1.7	1.0	71.0	spatial	attention_network_task	up	right	congruent	71	0.46	s570
199.303592	1.7	1.0	71.0	double	attention_network_task	up	right	congruent	71	0.798	s570
201.915	1.7	1.0	71.0	spatial	attention_network_task	up	right	congruent	71	0.534	s570
204.52559200000002	1.7	1.0	71.0	spatial	attention_network_task	down	right	congruent	71	0.694	s570
207.138	1.7	1.0	89.0	spatial	attention_network_task	up	left	incongruent	89	0.717	s570
209.747	1.7	1.0	71.0	spatial	attention_network_task	up	right	incongruent	71	0.718	s570
212.355592	1.7	1.0	89.0	spatial	attention_network_task	down	left	incongruent	89	0.894	s570
214.968864	1.7	1.0	71.0	spatial	attention_network_task	down	right	incongruent	71	0.859	s570
217.576728	1.7	1.0	71.0	double	attention_network_task	down	right	incongruent	71	0.713	s570
220.184456	1.7	1.0	89.0	double	attention_network_task	up	left	incongruent	89	0.722	s570
222.794728	1.7	1.0	89.0	spatial	attention_network_task	up	left	incongruent	89	0.555	s570
225.407	1.7	1.0	89.0	spatial	attention_network_task	down	left	incongruent	89	0.743	s570
228.014592	1.7	1.0	89.0	spatial	attention_network_task	up	left	incongruent	89	0.527	s570
230.623	1.7	1.0	89.0	spatial	attention_network_task	down	left	congruent	89	0.556	s570
233.231	1.7	1.0	71.0	double	attention_network_task	up	right	congruent	71	0.63	s570
235.838456	1.7	1.0	71.0	double	attention_network_task	down	right	incongruent	71	0.806	s570
238.451592	1.7	1.0	71.0	spatial	attention_network_task	down	right	congruent	71	0.509	s570
241.061	1.7	1.0	71.0	spatial	attention_network_task	down	right	congruent	71	0.471	s570
243.667864	1.7	1.0	71.0	spatial	attention_network_task	down	right	congruent	71	0.484	s570
246.276184	1.7	1.0	89.0	spatial	attention_network_task	down	left	incongruent	89	0.635	s570
248.884864	1.7	1.0	71.0	double	attention_network_task	down	right	congruent	71	0.86	s570
251.493	1.7	1.0	89.0	spatial	attention_network_task	up	left	congruent	89	0.582	s570
254.100864	1.7	1.0	71.0	double	attention_network_task	up	right	incongruent	71	0.794	s570
256.713864	1.7	1.0	89.0	spatial	attention_network_task	up	left	incongruent	89	0.629	s570
259.322864	1.7	1.0	89.0	double	attention_network_task	up	left	incongruent	89	0.849	s570
261.930456	1.7	1.0	89.0	spatial	attention_network_task	up	left	congruent	89	0.542	s570
264.539	1.7	1.0	89.0	spatial	attention_network_task	up	left	congruent	89	0.492	s570
267.146728	1.7	1.0	89.0	double	attention_network_task	up	left	incongruent	89	0.715	s570
269.755	1.7	1.0	89.0	spatial	attention_network_task	down	left	congruent	89	0.857	s570
272.362864	1.7	1.0	89.0	spatial	attention_network_task	down	left	congruent	89	0.56	s570
274.970592	1.7	1.0	89.0	double	attention_network_task	up	left	incongruent	89	0.626	s570
277.578456	1.7	1.0	71.0	double	attention_network_task	down	right	congruent	71	0.843	s570
280.187	1.7	1.0	89.0	double	attention_network_task	down	left	incongruent	89	0.927	s570
282.794864	1.7	1.0	89.0	spatial	attention_network_task	down	left	incongruent	89	0.562	s570
285.402864	1.7	1.0	89.0	double	attention_network_task	down	left	incongruent	89	0.772	s570
288.010864	1.7	1.0	71.0	spatial	attention_network_task	up	right	incongruent	71	0.963	s570
290.618864	1.7	1.0	89.0	double	attention_network_task	down	left	congruent	89	0.909	s570
293.227728	1.7	1.0	89.0	spatial	attention_network_task	up	left	incongruent	89	0.679	s570
295.835864	1.7	1.0	71.0	spatial	attention_network_task	up	right	incongruent	71	0.624	s570
298.443592	1.7	1.0	71.0	spatial	attention_network_task	up	right	incongruent	71	0.521	s570
301.058	1.7	1.0	89.0	double	attention_network_task	down	left	incongruent	89	0.781	s570
303.664864	1.7	1.0	89.0	double	attention_network_task	up	left	congruent	89	0.575	s570
306.273	1.7	1.0	89.0	spatial	attention_network_task	down	left	congruent	89	0.651	s570
308.881864	1.7	1.0	71.0	double	attention_network_task	down	right	incongruent	71	0.805	s570
311.492048	1.7	1.0	89.0	spatial	attention_network_task	down	left	congruent	89	0.557	s570
314.102728	1.7	1.0	89.0	double	attention_network_task	down	left	congruent	89	0.598	s570
316.715864	1.7	1.0	71.0	double	attention_network_task	down	right	congruent	71	0.628	s570
319.325	1.7	1.0	71.0	double	attention_network_task	up	right	incongruent	71	0.602	s570
321.932864	1.7	1.0	71.0	spatial	attention_network_task	down	right	incongruent	71	0.507	s570
324.542	1.7	1.0	89.0	double	attention_network_task	down	left	congruent	89	0.704	s570
327.153864	1.7	1.0	71.0	spatial	attention_network_task	down	right	incongruent	71	0.7	s570
329.762728	1.7	1.0	89.0	double	attention_network_task	down	left	incongruent	89	0.799	s570
332.369728	1.7	1.0	89.0	spatial	attention_network_task	up	left	incongruent	89	0.902	s570
334.977864	1.7	1.0	89.0	double	attention_network_task	up	left	congruent	89	0.633	s570
337.586	1.7	1.0	71.0	double	attention_network_task	up	right	incongruent	71	0.633	s570
340.194864	1.7	1.0	71.0	double	attention_network_task	up	right	incongruent	71	0.555	s570
342.803	1.7	1.0	71.0	spatial	attention_network_task	up	right	congruent	71	0.536	s570
345.410728	1.7	1.0	71.0	double	attention_network_task	up	right	congruent	71	0.435	s570
