onset	duration	block_duration	movement_onset	planning	condition	exp_stage	experiment_exp_id	key_press	problem_id	response_time	trial_id	trial_type	worker_id	junk
3.007	2.559	2.559	5.566	1	UA_with_intermediate	practice	ward_and_allport	89	0.0	2.559	to_hand	poldrack-single-stim	s172	False
5.567	0.1	0.563	6.13	0	UA_with_intermediate	practice	ward_and_allport	82	0.0	0.563	to_board	poldrack-single-stim	s172	False
6.132	0.1	1.33	7.462	0	UA_with_intermediate	practice	ward_and_allport	71	0.0	1.33	to_hand	poldrack-single-stim	s172	False
7.462	0.1	0.333	7.795	0	UA_with_intermediate	practice	ward_and_allport	89	0.0	0.333	to_board	poldrack-single-stim	s172	False
7.797	0.1	0.895	8.692	0	UA_with_intermediate	practice	ward_and_allport	71	0.0	0.895	to_hand	poldrack-single-stim	s172	False
8.693	0.1	0.371	9.064	0	UA_with_intermediate	practice	ward_and_allport	89	0.0	0.371	to_board	poldrack-single-stim	s172	False
9.066	0.1	0.354	9.42	0	UA_with_intermediate	practice	ward_and_allport	82	0.0	0.354	to_hand	poldrack-single-stim	s172	False
9.421	0.1	0.471	9.892	0	UA_with_intermediate	practice	ward_and_allport	71	0.0	0.471	to_board	poldrack-single-stim	s172	False
9.894	0.1	0.731	10.625	0	UA_with_intermediate	practice	ward_and_allport	71	0.0	0.731	to_hand	poldrack-single-stim	s172	False
10.626	0.1	0.558	11.184	0	UA_with_intermediate	practice	ward_and_allport	71	0.0	0.558	to_board	poldrack-single-stim	s172	False
11.187	0.1	0.341	11.528	0	UA_with_intermediate	practice	ward_and_allport	89	0.0	0.341	to_hand	poldrack-single-stim	s172	False
11.529	0.1	0.311	11.84	0	UA_with_intermediate	practice	ward_and_allport	71	0.0	0.311	to_board	poldrack-single-stim	s172	False
11.84	0.1	0.451	12.291	0	UA_with_intermediate	practice	ward_and_allport	89	0.0	0.451	to_hand	poldrack-single-stim	s172	False
12.293	0.1	0.324	12.617	0	UA_with_intermediate	practice	ward_and_allport	71	0.0	0.324	to_board	poldrack-single-stim	s172	False
12.619	0.1	13.449	26.068	0	UA_with_intermediate	practice	ward_and_allport	71	0.0	13.449	to_hand	poldrack-single-stim	s172	False
26.068	0.1	0.616	26.684	0	UA_with_intermediate	practice	ward_and_allport	82	0.0	0.616	to_board	poldrack-single-stim	s172	False
26.686	0.1	0.4	27.086	0	UA_with_intermediate	practice	ward_and_allport	71	0.0	0.4	to_hand	poldrack-single-stim	s172	False
27.087	0.1	0.312	27.399	0	UA_with_intermediate	practice	ward_and_allport	82	0.0	0.312	to_board	poldrack-single-stim	s172	False
27.402	0.1	0.628	28.03	0	UA_with_intermediate	practice	ward_and_allport	71	0.0	0.628	to_hand	poldrack-single-stim	s172	False
28.031	0.1	0.305	28.336	0	UA_with_intermediate	practice	ward_and_allport	89	0.0	0.305	to_board	poldrack-single-stim	s172	False
28.338	0.1	0.984	29.322	0	UA_with_intermediate	practice	ward_and_allport	82	0.0	0.984	to_hand	poldrack-single-stim	s172	False
29.324	0.1	0.348	29.672	0	UA_with_intermediate	practice	ward_and_allport	89	0.0	0.348	to_board	poldrack-single-stim	s172	False
29.673	0.1	0.463	30.136	0	UA_with_intermediate	practice	ward_and_allport	82	0.0	0.463	to_hand	poldrack-single-stim	s172	False
30.137	0.1	0.277	30.414	0	UA_with_intermediate	practice	ward_and_allport	89	0.0	0.277	to_board	poldrack-single-stim	s172	False
30.418	1.0	2.5	30.417	0	UA_with_intermediate	practice	ward_and_allport	-1	0.0	n/a	feedback	poldrack-single-stim	s172	False
32.92	2.135	2.135	35.055	1	UA_with_intermediate	practice	ward_and_allport	71	1.0	2.135	to_hand	poldrack-single-stim	s172	False
35.057	0.1	1.235	36.292	0	UA_with_intermediate	practice	ward_and_allport	82	1.0	1.235	to_board	poldrack-single-stim	s172	False
36.294	0.1	1.454	37.748	0	UA_with_intermediate	practice	ward_and_allport	89	1.0	1.454	to_hand	poldrack-single-stim	s172	False
37.748	0.1	0.235	37.983	0	UA_with_intermediate	practice	ward_and_allport	71	1.0	0.235	to_board	poldrack-single-stim	s172	False
37.985	0.1	0.965	38.95	0	UA_with_intermediate	practice	ward_and_allport	82	1.0	0.965	to_hand	poldrack-single-stim	s172	False
38.952	0.1	0.538	39.49	0	UA_with_intermediate	practice	ward_and_allport	89	1.0	0.538	to_board	poldrack-single-stim	s172	False
39.492	0.1	0.544	40.036	0	UA_with_intermediate	practice	ward_and_allport	71	1.0	0.544	to_hand	poldrack-single-stim	s172	False
40.036	0.1	0.363	40.399	0	UA_with_intermediate	practice	ward_and_allport	89	1.0	0.363	to_board	poldrack-single-stim	s172	False
40.403	1.0	2.1	40.402	0	UA_with_intermediate	practice	ward_and_allport	-1	1.0	n/a	feedback	poldrack-single-stim	s172	False
42.506	1.471	1.471	43.977	1	UA_without_intermediate	practice	ward_and_allport	71	2.0	1.471	to_hand	poldrack-single-stim	s172	False
43.977	0.1	0.471	44.448	0	UA_without_intermediate	practice	ward_and_allport	82	2.0	0.471	to_board	poldrack-single-stim	s172	False
44.45	0.1	1.014	45.464	0	UA_without_intermediate	practice	ward_and_allport	71	2.0	1.014	to_hand	poldrack-single-stim	s172	False
45.466	0.1	0.624	46.09	0	UA_without_intermediate	practice	ward_and_allport	71	2.0	0.624	to_board	poldrack-single-stim	s172	False
46.092	0.1	0.453	46.545	0	UA_without_intermediate	practice	ward_and_allport	82	2.0	0.453	to_hand	poldrack-single-stim	s172	False
46.546	0.1	0.311	46.857	0	UA_without_intermediate	practice	ward_and_allport	71	2.0	0.311	to_board	poldrack-single-stim	s172	False
46.859	0.1	0.47	47.329	0	UA_without_intermediate	practice	ward_and_allport	82	2.0	0.47	to_hand	poldrack-single-stim	s172	False
47.33	0.1	0.363	47.693	0	UA_without_intermediate	practice	ward_and_allport	89	2.0	0.363	to_board	poldrack-single-stim	s172	False
47.696	0.1	0.423	48.119	0	UA_without_intermediate	practice	ward_and_allport	71	2.0	0.423	to_hand	poldrack-single-stim	s172	False
48.12	0.1	0.348	48.468	0	UA_without_intermediate	practice	ward_and_allport	89	2.0	0.348	to_board	poldrack-single-stim	s172	False
48.469	0.1	0.712	49.181	0	UA_without_intermediate	practice	ward_and_allport	71	2.0	0.712	to_hand	poldrack-single-stim	s172	False
49.182	0.1	-1.008	48.174	0	UA_without_intermediate	practice	ward_and_allport	89	2.0	-1.008	to_board	poldrack-single-stim	s172	False
48.177	1.0	2.2	48.176	0	UA_without_intermediate	practice	ward_and_allport	-1	2.0	n/a	feedback	poldrack-single-stim	s172	False
50.38	1.219	1.219	51.599	1	UA_without_intermediate	practice	ward_and_allport	71	3.0	1.219	to_hand	poldrack-single-stim	s172	False
51.599	0.1	0.351	51.95	0	UA_without_intermediate	practice	ward_and_allport	89	3.0	0.351	to_board	poldrack-single-stim	s172	False
51.953	0.1	0.829	52.782	0	UA_without_intermediate	practice	ward_and_allport	82	3.0	0.829	to_hand	poldrack-single-stim	s172	False
52.783	0.1	0.345	53.128	0	UA_without_intermediate	practice	ward_and_allport	89	3.0	0.345	to_board	poldrack-single-stim	s172	False
53.13	0.1	0.395	53.525	0	UA_without_intermediate	practice	ward_and_allport	71	3.0	0.395	to_hand	poldrack-single-stim	s172	False
53.526	0.1	0.324	53.85	0	UA_without_intermediate	practice	ward_and_allport	89	3.0	0.324	to_board	poldrack-single-stim	s172	False
53.854	1.0	2.0	53.853	0	UA_without_intermediate	practice	ward_and_allport	-1	3.0	n/a	feedback	poldrack-single-stim	s172	False
57.86	2.849	2.849	60.709	1	PA_with_intermediate	test	ward_and_allport	89	0.0	2.849	to_hand	poldrack-single-stim	s172	False
60.71	0.1	0.405	61.115	0	PA_with_intermediate	test	ward_and_allport	71	0.0	0.405	to_board	poldrack-single-stim	s172	False
61.118	0.1	0.632	61.75	0	PA_with_intermediate	test	ward_and_allport	89	0.0	0.632	to_hand	poldrack-single-stim	s172	False
61.75	0.1	0.412	62.162	0	PA_with_intermediate	test	ward_and_allport	82	0.0	0.412	to_board	poldrack-single-stim	s172	False
62.165	0.1	1.201	63.366	0	PA_with_intermediate	test	ward_and_allport	71	0.0	1.201	to_hand	poldrack-single-stim	s172	False
63.366	0.1	0.343	63.709	0	PA_with_intermediate	test	ward_and_allport	82	0.0	0.343	to_board	poldrack-single-stim	s172	False
63.714	1.0	2.408	63.713	0	PA_with_intermediate	test	ward_and_allport	-1	0.0	n/a	feedback	poldrack-single-stim	s172	False
66.125	1.405	1.405	67.53	1	PA_without_intermediate	test	ward_and_allport	71	1.0	1.405	to_hand	poldrack-single-stim	s172	False
67.531	0.1	0.794	68.325	0	PA_without_intermediate	test	ward_and_allport	82	1.0	0.794	to_board	poldrack-single-stim	s172	False
68.327	0.1	0.365	68.692	0	PA_without_intermediate	test	ward_and_allport	71	1.0	0.365	to_hand	poldrack-single-stim	s172	False
68.694	0.1	0.373	69.067	0	PA_without_intermediate	test	ward_and_allport	89	1.0	0.373	to_board	poldrack-single-stim	s172	False
69.07	0.1	0.411	69.481	0	PA_without_intermediate	test	ward_and_allport	71	1.0	0.411	to_hand	poldrack-single-stim	s172	False
69.482	0.1	0.4	69.882	0	PA_without_intermediate	test	ward_and_allport	82	1.0	0.4	to_board	poldrack-single-stim	s172	False
69.885	1.0	2.68	69.884	0	PA_without_intermediate	test	ward_and_allport	-1	1.0	n/a	feedback	poldrack-single-stim	s172	False
72.568	1.489	1.489	74.057	1	PA_with_intermediate	test	ward_and_allport	82	2.0	1.489	to_hand	poldrack-single-stim	s172	False
74.058	0.1	1.144	75.202	0	PA_with_intermediate	test	ward_and_allport	89	2.0	1.144	to_board	poldrack-single-stim	s172	False
75.204	0.1	0.984	76.188	0	PA_with_intermediate	test	ward_and_allport	82	2.0	0.984	to_hand	poldrack-single-stim	s172	False
76.19	0.1	0.447	76.637	0	PA_with_intermediate	test	ward_and_allport	71	2.0	0.447	to_board	poldrack-single-stim	s172	False
76.64	0.1	0.561	77.201	0	PA_with_intermediate	test	ward_and_allport	89	2.0	0.561	to_hand	poldrack-single-stim	s172	False
77.202	0.1	0.623	77.825	0	PA_with_intermediate	test	ward_and_allport	82	2.0	0.623	to_board	poldrack-single-stim	s172	False
77.828	0.1	0.336	78.164	0	PA_with_intermediate	test	ward_and_allport	71	2.0	0.336	to_hand	poldrack-single-stim	s172	False
78.164	0.1	0.299	78.463	0	PA_with_intermediate	test	ward_and_allport	89	2.0	0.299	to_board	poldrack-single-stim	s172	False
78.467	1.0	4.72	78.466	0	PA_with_intermediate	test	ward_and_allport	-1	2.0	n/a	feedback	poldrack-single-stim	s172	False
83.191	2.302	2.302	85.493	1	PA_without_intermediate	test	ward_and_allport	82	3.0	2.302	to_hand	poldrack-single-stim	s172	False
85.494	0.1	0.327	85.821	0	PA_without_intermediate	test	ward_and_allport	89	3.0	0.327	to_board	poldrack-single-stim	s172	False
85.823	0.1	2.129	87.952	0	PA_without_intermediate	test	ward_and_allport	89	3.0	2.129	to_hand	poldrack-single-stim	s172	False
87.952	0.1	0.945	88.897	0	PA_without_intermediate	test	ward_and_allport	89	3.0	0.945	to_board	poldrack-single-stim	s172	False
88.9	0.1	1.038	89.938	0	PA_without_intermediate	test	ward_and_allport	82	3.0	1.038	to_hand	poldrack-single-stim	s172	False
89.939	0.1	0.497	90.436	0	PA_without_intermediate	test	ward_and_allport	71	3.0	0.497	to_board	poldrack-single-stim	s172	False
90.44	0.1	0.639	91.079	0	PA_without_intermediate	test	ward_and_allport	82	3.0	0.639	to_hand	poldrack-single-stim	s172	False
91.081	0.1	0.323	91.404	0	PA_without_intermediate	test	ward_and_allport	89	3.0	0.323	to_board	poldrack-single-stim	s172	False
91.408	1.0	3.224	91.407	0	PA_without_intermediate	test	ward_and_allport	-1	3.0	n/a	feedback	poldrack-single-stim	s172	False
94.636	1.141	1.141	95.777	1	PA_without_intermediate	test	ward_and_allport	82	4.0	1.141	to_hand	poldrack-single-stim	s172	False
95.777	0.1	0.424	96.201	0	PA_without_intermediate	test	ward_and_allport	71	4.0	0.424	to_board	poldrack-single-stim	s172	False
96.205	0.1	0.692	96.897	0	PA_without_intermediate	test	ward_and_allport	82	4.0	0.692	to_hand	poldrack-single-stim	s172	False
96.898	0.1	0.366	97.264	0	PA_without_intermediate	test	ward_and_allport	89	4.0	0.366	to_board	poldrack-single-stim	s172	False
97.267	0.1	0.428	97.695	0	PA_without_intermediate	test	ward_and_allport	82	4.0	0.428	to_hand	poldrack-single-stim	s172	False
97.696	0.1	0.33	98.026	0	PA_without_intermediate	test	ward_and_allport	71	4.0	0.33	to_board	poldrack-single-stim	s172	False
98.031	1.0	2.272	98.03	0	PA_without_intermediate	test	ward_and_allport	-1	4.0	n/a	feedback	poldrack-single-stim	s172	False
100.307	1.826	1.826	102.133	1	PA_with_intermediate	test	ward_and_allport	82	5.0	1.826	to_hand	poldrack-single-stim	s172	False
102.134	0.1	0.561	102.695	0	PA_with_intermediate	test	ward_and_allport	71	5.0	0.561	to_board	poldrack-single-stim	s172	False
102.698	0.1	0.738	103.436	0	PA_with_intermediate	test	ward_and_allport	82	5.0	0.738	to_hand	poldrack-single-stim	s172	False
103.437	0.1	0.724	104.161	0	PA_with_intermediate	test	ward_and_allport	82	5.0	0.724	to_board	poldrack-single-stim	s172	False
104.165	0.1	0.705	104.87	0	PA_with_intermediate	test	ward_and_allport	71	5.0	0.705	to_hand	poldrack-single-stim	s172	False
104.87	0.1	0.467	105.337	0	PA_with_intermediate	test	ward_and_allport	89	5.0	0.467	to_board	poldrack-single-stim	s172	False
105.343	0.1	0.398	105.741	0	PA_with_intermediate	test	ward_and_allport	82	5.0	0.398	to_hand	poldrack-single-stim	s172	False
105.741	0.1	0.481	106.222	0	PA_with_intermediate	test	ward_and_allport	71	5.0	0.481	to_board	poldrack-single-stim	s172	False
106.227	0.1	0.472	106.699	0	PA_with_intermediate	test	ward_and_allport	89	5.0	0.472	to_hand	poldrack-single-stim	s172	False
106.701	0.1	0.268	106.969	0	PA_with_intermediate	test	ward_and_allport	71	5.0	0.268	to_board	poldrack-single-stim	s172	False
106.974	1.0	3.632	106.973	0	PA_with_intermediate	test	ward_and_allport	-1	5.0	n/a	feedback	poldrack-single-stim	s172	False
110.611	1.339	1.339	111.95	1	PA_without_intermediate	test	ward_and_allport	82	6.0	1.339	to_hand	poldrack-single-stim	s172	False
111.951	0.1	0.737	112.688	0	PA_without_intermediate	test	ward_and_allport	71	6.0	0.737	to_board	poldrack-single-stim	s172	False
112.693	0.1	0.382	113.075	0	PA_without_intermediate	test	ward_and_allport	82	6.0	0.382	to_hand	poldrack-single-stim	s172	False
113.079	0.1	0.298	113.377	0	PA_without_intermediate	test	ward_and_allport	89	6.0	0.298	to_board	poldrack-single-stim	s172	False
113.381	0.1	0.429	113.81	0	PA_without_intermediate	test	ward_and_allport	82	6.0	0.429	to_hand	poldrack-single-stim	s172	False
113.811	0.1	0.368	114.179	0	PA_without_intermediate	test	ward_and_allport	71	6.0	0.368	to_board	poldrack-single-stim	s172	False
114.185	1.0	2.408	114.184	0	PA_without_intermediate	test	ward_and_allport	-1	6.0	n/a	feedback	poldrack-single-stim	s172	False
116.596	1.981	1.981	118.577	1	PA_without_intermediate	test	ward_and_allport	89	7.0	1.981	to_hand	poldrack-single-stim	s172	False
118.578	0.1	0.359	118.937	0	PA_without_intermediate	test	ward_and_allport	82	7.0	0.359	to_board	poldrack-single-stim	s172	False
118.942	0.1	0.559	119.501	0	PA_without_intermediate	test	ward_and_allport	89	7.0	0.559	to_hand	poldrack-single-stim	s172	False
119.501	0.1	0.288	119.789	0	PA_without_intermediate	test	ward_and_allport	82	7.0	0.288	to_board	poldrack-single-stim	s172	False
119.794	0.1	1.005	120.799	0	PA_without_intermediate	test	ward_and_allport	89	7.0	1.005	to_hand	poldrack-single-stim	s172	False
120.8	0.1	0.254	121.054	0	PA_without_intermediate	test	ward_and_allport	71	7.0	0.254	to_board	poldrack-single-stim	s172	False
121.06	1.0	2.0	121.059	0	PA_without_intermediate	test	ward_and_allport	-1	7.0	n/a	feedback	poldrack-single-stim	s172	False
123.064	1.404	1.404	124.468	1	PA_with_intermediate	test	ward_and_allport	89	8.0	1.404	to_hand	poldrack-single-stim	s172	False
124.468	0.1	0.922	125.39	0	PA_with_intermediate	test	ward_and_allport	71	8.0	0.922	to_board	poldrack-single-stim	s172	False
125.393	0.1	0.342	125.735	0	PA_with_intermediate	test	ward_and_allport	89	8.0	0.342	to_hand	poldrack-single-stim	s172	False
125.736	0.1	0.325	126.061	0	PA_with_intermediate	test	ward_and_allport	82	8.0	0.325	to_board	poldrack-single-stim	s172	False
126.065	0.1	0.653	126.718	0	PA_with_intermediate	test	ward_and_allport	71	8.0	0.653	to_hand	poldrack-single-stim	s172	False
126.719	0.1	0.27	126.989	0	PA_with_intermediate	test	ward_and_allport	89	8.0	0.27	to_board	poldrack-single-stim	s172	False
126.996	1.0	2.0	126.995	0	PA_with_intermediate	test	ward_and_allport	-1	8.0	n/a	feedback	poldrack-single-stim	s172	False
129.0	0.934	0.934	129.934	1	PA_with_intermediate	test	ward_and_allport	89	9.0	0.934	to_hand	poldrack-single-stim	s172	False
129.935	0.1	1.02	130.955	0	PA_with_intermediate	test	ward_and_allport	82	9.0	1.02	to_board	poldrack-single-stim	s172	False
130.959	0.1	0.397	131.356	0	PA_with_intermediate	test	ward_and_allport	89	9.0	0.397	to_hand	poldrack-single-stim	s172	False
131.358	0.1	0.349	131.707	0	PA_with_intermediate	test	ward_and_allport	71	9.0	0.349	to_board	poldrack-single-stim	s172	False
131.712	0.1	0.337	132.049	0	PA_with_intermediate	test	ward_and_allport	82	9.0	0.337	to_hand	poldrack-single-stim	s172	False
132.049	0.1	0.35	132.399	0	PA_with_intermediate	test	ward_and_allport	89	9.0	0.35	to_board	poldrack-single-stim	s172	False
132.404	0.1	1.064	133.468	0	PA_with_intermediate	test	ward_and_allport	89	9.0	1.064	to_hand	poldrack-single-stim	s172	False
133.469	0.1	0.41	133.879	0	PA_with_intermediate	test	ward_and_allport	71	9.0	0.41	to_board	poldrack-single-stim	s172	False
133.884	1.0	2.0	133.883	0	PA_with_intermediate	test	ward_and_allport	-1	9.0	n/a	feedback	poldrack-single-stim	s172	False
135.887	1.603	1.603	137.49	1	PA_with_intermediate	test	ward_and_allport	82	10.0	1.603	to_hand	poldrack-single-stim	s172	False
137.491	0.1	0.936	138.427	0	PA_with_intermediate	test	ward_and_allport	89	10.0	0.936	to_board	poldrack-single-stim	s172	False
138.431	0.1	0.479	138.91	0	PA_with_intermediate	test	ward_and_allport	82	10.0	0.479	to_hand	poldrack-single-stim	s172	False
138.912	0.1	0.396	139.308	0	PA_with_intermediate	test	ward_and_allport	71	10.0	0.396	to_board	poldrack-single-stim	s172	False
139.312	0.1	0.611	139.923	0	PA_with_intermediate	test	ward_and_allport	89	10.0	0.611	to_hand	poldrack-single-stim	s172	False
139.924	0.1	0.546	140.47	0	PA_with_intermediate	test	ward_and_allport	82	10.0	0.546	to_board	poldrack-single-stim	s172	False
140.475	1.0	2.408	140.474	0	PA_with_intermediate	test	ward_and_allport	-1	10.0	n/a	feedback	poldrack-single-stim	s172	False
142.888	2.689	2.689	145.577	1	PA_without_intermediate	test	ward_and_allport	71	11.0	2.689	to_hand	poldrack-single-stim	s172	False
145.578	0.1	0.265	145.843	0	PA_without_intermediate	test	ward_and_allport	89	11.0	0.265	to_board	poldrack-single-stim	s172	False
145.847	0.1	0.715	146.562	0	PA_without_intermediate	test	ward_and_allport	71	11.0	0.715	to_hand	poldrack-single-stim	s172	False
146.563	0.1	0.248	146.811	0	PA_without_intermediate	test	ward_and_allport	89	11.0	0.248	to_board	poldrack-single-stim	s172	False
146.816	0.1	0.759	147.575	0	PA_without_intermediate	test	ward_and_allport	71	11.0	0.759	to_hand	poldrack-single-stim	s172	False
147.577	0.1	0.283	147.86	0	PA_without_intermediate	test	ward_and_allport	82	11.0	0.283	to_board	poldrack-single-stim	s172	False
147.866	1.0	2.816	147.865	0	PA_without_intermediate	test	ward_and_allport	-1	11.0	n/a	feedback	poldrack-single-stim	s172	False
150.687	1.293	1.293	151.98	1	PA_with_intermediate	test	ward_and_allport	71	12.0	1.293	to_hand	poldrack-single-stim	s172	False
151.981	0.1	0.524	152.505	0	PA_with_intermediate	test	ward_and_allport	82	12.0	0.524	to_board	poldrack-single-stim	s172	False
152.509	0.1	0.398	152.907	0	PA_with_intermediate	test	ward_and_allport	71	12.0	0.398	to_hand	poldrack-single-stim	s172	False
152.908	0.1	0.327	153.235	0	PA_with_intermediate	test	ward_and_allport	89	12.0	0.327	to_board	poldrack-single-stim	s172	False
153.24	0.1	0.39	153.63	0	PA_with_intermediate	test	ward_and_allport	82	12.0	0.39	to_hand	poldrack-single-stim	s172	False
153.63	0.1	0.338	153.968	0	PA_with_intermediate	test	ward_and_allport	89	12.0	0.338	to_board	poldrack-single-stim	s172	False
153.974	1.0	4.176	153.973	0	PA_with_intermediate	test	ward_and_allport	-1	12.0	n/a	feedback	poldrack-single-stim	s172	False
158.154	1.349	1.349	159.503	1	PA_with_intermediate	test	ward_and_allport	82	13.0	1.349	to_hand	poldrack-single-stim	s172	False
159.504	0.1	0.462	159.966	0	PA_with_intermediate	test	ward_and_allport	71	13.0	0.462	to_board	poldrack-single-stim	s172	False
159.97	0.1	0.704	160.674	0	PA_with_intermediate	test	ward_and_allport	82	13.0	0.704	to_hand	poldrack-single-stim	s172	False
160.675	0.1	0.332	161.007	0	PA_with_intermediate	test	ward_and_allport	89	13.0	0.332	to_board	poldrack-single-stim	s172	False
161.013	0.1	0.628	161.641	0	PA_with_intermediate	test	ward_and_allport	71	13.0	0.628	to_hand	poldrack-single-stim	s172	False
161.641	0.1	0.274	161.915	0	PA_with_intermediate	test	ward_and_allport	89	13.0	0.274	to_board	poldrack-single-stim	s172	False
161.921	1.0	3.36	161.92	0	PA_with_intermediate	test	ward_and_allport	-1	13.0	n/a	feedback	poldrack-single-stim	s172	False
165.286	1.15	1.15	166.436	1	PA_with_intermediate	test	ward_and_allport	71	14.0	1.15	to_hand	poldrack-single-stim	s172	False
166.438	0.1	0.745	167.183	0	PA_with_intermediate	test	ward_and_allport	89	14.0	0.745	to_board	poldrack-single-stim	s172	False
167.187	0.1	0.284	167.471	0	PA_with_intermediate	test	ward_and_allport	71	14.0	0.284	to_hand	poldrack-single-stim	s172	False
167.472	0.1	0.297	167.769	0	PA_with_intermediate	test	ward_and_allport	82	14.0	0.297	to_board	poldrack-single-stim	s172	False
167.775	0.1	0.287	168.062	0	PA_with_intermediate	test	ward_and_allport	89	14.0	0.287	to_hand	poldrack-single-stim	s172	False
168.064	0.1	0.32	168.384	0	PA_with_intermediate	test	ward_and_allport	82	14.0	0.32	to_board	poldrack-single-stim	s172	False
168.39	1.0	2.0	168.389	0	PA_with_intermediate	test	ward_and_allport	-1	14.0	n/a	feedback	poldrack-single-stim	s172	False
175.398	1.228	1.228	176.626	1	PA_without_intermediate	test	ward_and_allport	71	15.0	1.228	to_hand	poldrack-single-stim	s172	False
176.626	0.1	0.631	177.257	0	PA_without_intermediate	test	ward_and_allport	89	15.0	0.631	to_board	poldrack-single-stim	s172	False
177.263	0.1	0.296	177.559	0	PA_without_intermediate	test	ward_and_allport	71	15.0	0.296	to_hand	poldrack-single-stim	s172	False
177.559	0.1	0.327	177.886	0	PA_without_intermediate	test	ward_and_allport	89	15.0	0.327	to_board	poldrack-single-stim	s172	False
177.891	0.1	0.67	178.561	0	PA_without_intermediate	test	ward_and_allport	71	15.0	0.67	to_hand	poldrack-single-stim	s172	False
178.562	0.1	0.298	178.86	0	PA_without_intermediate	test	ward_and_allport	82	15.0	0.298	to_board	poldrack-single-stim	s172	False
178.866	1.0	2.408	178.865	0	PA_without_intermediate	test	ward_and_allport	-1	15.0	n/a	feedback	poldrack-single-stim	s172	False
181.279	2.133	2.133	183.412	1	PA_with_intermediate	test	ward_and_allport	82	16.0	2.133	to_hand	poldrack-single-stim	s172	False
183.412	0.1	1.203	184.615	0	PA_with_intermediate	test	ward_and_allport	71	16.0	1.203	to_board	poldrack-single-stim	s172	False
184.62	0.1	0.521	185.141	0	PA_with_intermediate	test	ward_and_allport	71	16.0	0.521	to_hand	poldrack-single-stim	s172	False
185.142	0.1	0.693	185.835	0	PA_with_intermediate	test	ward_and_allport	71	16.0	0.693	to_board	poldrack-single-stim	s172	False
185.841	0.1	0.76	186.601	0	PA_with_intermediate	test	ward_and_allport	82	16.0	0.76	to_hand	poldrack-single-stim	s172	False
186.602	0.1	0.311	186.913	0	PA_with_intermediate	test	ward_and_allport	89	16.0	0.311	to_board	poldrack-single-stim	s172	False
186.918	0.1	0.898	187.816	0	PA_with_intermediate	test	ward_and_allport	71	16.0	0.898	to_hand	poldrack-single-stim	s172	False
187.817	0.1	0.294	188.111	0	PA_with_intermediate	test	ward_and_allport	82	16.0	0.294	to_board	poldrack-single-stim	s172	False
188.119	1.0	2.816	188.118	0	PA_with_intermediate	test	ward_and_allport	-1	16.0	n/a	feedback	poldrack-single-stim	s172	False
190.94	1.932	1.932	192.872	1	PA_without_intermediate	test	ward_and_allport	89	17.0	1.932	to_hand	poldrack-single-stim	s172	False
192.872	0.1	0.366	193.238	0	PA_without_intermediate	test	ward_and_allport	71	17.0	0.366	to_board	poldrack-single-stim	s172	False
193.244	0.1	0.89	194.134	0	PA_without_intermediate	test	ward_and_allport	89	17.0	0.89	to_hand	poldrack-single-stim	s172	False
194.135	0.1	0.286	194.421	0	PA_without_intermediate	test	ward_and_allport	82	17.0	0.286	to_board	poldrack-single-stim	s172	False
194.428	0.1	0.524	194.952	0	PA_without_intermediate	test	ward_and_allport	89	17.0	0.524	to_hand	poldrack-single-stim	s172	False
194.953	0.1	0.268	195.221	0	PA_without_intermediate	test	ward_and_allport	71	17.0	0.268	to_board	poldrack-single-stim	s172	False
195.229	1.0	3.088	195.228	0	PA_without_intermediate	test	ward_and_allport	-1	17.0	n/a	feedback	poldrack-single-stim	s172	False
198.324	1.594	1.594	199.918	1	PA_without_intermediate	test	ward_and_allport	89	18.0	1.594	to_hand	poldrack-single-stim	s172	False
199.919	0.1	0.339	200.258	0	PA_without_intermediate	test	ward_and_allport	82	18.0	0.339	to_board	poldrack-single-stim	s172	False
200.263	0.1	0.954	201.217	0	PA_without_intermediate	test	ward_and_allport	89	18.0	0.954	to_hand	poldrack-single-stim	s172	False
201.219	0.1	0.26	201.479	0	PA_without_intermediate	test	ward_and_allport	71	18.0	0.26	to_board	poldrack-single-stim	s172	False
201.484	0.1	0.387	201.871	0	PA_without_intermediate	test	ward_and_allport	89	18.0	0.387	to_hand	poldrack-single-stim	s172	False
201.872	0.1	0.433	202.305	0	PA_without_intermediate	test	ward_and_allport	82	18.0	0.433	to_board	poldrack-single-stim	s172	False
202.313	1.0	2.136	202.312	0	PA_without_intermediate	test	ward_and_allport	-1	18.0	n/a	feedback	poldrack-single-stim	s172	False
204.456	1.991	1.991	206.447	1	PA_without_intermediate	test	ward_and_allport	82	19.0	1.991	to_hand	poldrack-single-stim	s172	False
206.448	0.1	0.939	207.387	0	PA_without_intermediate	test	ward_and_allport	89	19.0	0.939	to_board	poldrack-single-stim	s172	False
207.394	0.1	0.74	208.134	0	PA_without_intermediate	test	ward_and_allport	82	19.0	0.74	to_hand	poldrack-single-stim	s172	False
208.134	0.1	0.334	208.468	0	PA_without_intermediate	test	ward_and_allport	89	19.0	0.334	to_board	poldrack-single-stim	s172	False
208.474	0.1	0.899	209.373	0	PA_without_intermediate	test	ward_and_allport	82	19.0	0.899	to_hand	poldrack-single-stim	s172	False
209.374	0.1	0.298	209.672	0	PA_without_intermediate	test	ward_and_allport	71	19.0	0.298	to_board	poldrack-single-stim	s172	False
209.68	1.0	7.168	209.679	0	PA_without_intermediate	test	ward_and_allport	-1	19.0	n/a	feedback	poldrack-single-stim	s172	False
216.854	1.289	1.289	218.143	1	PA_without_intermediate	test	ward_and_allport	71	20.0	1.289	to_hand	poldrack-single-stim	s172	False
218.144	0.1	0.785	218.929	0	PA_without_intermediate	test	ward_and_allport	82	20.0	0.785	to_board	poldrack-single-stim	s172	False
218.935	0.1	0.566	219.501	0	PA_without_intermediate	test	ward_and_allport	71	20.0	0.566	to_hand	poldrack-single-stim	s172	False
219.503	0.1	0.369	219.872	0	PA_without_intermediate	test	ward_and_allport	89	20.0	0.369	to_board	poldrack-single-stim	s172	False
219.878	0.1	0.291	220.169	0	PA_without_intermediate	test	ward_and_allport	71	20.0	0.291	to_hand	poldrack-single-stim	s172	False
220.17	0.1	0.333	220.503	0	PA_without_intermediate	test	ward_and_allport	82	20.0	0.333	to_board	poldrack-single-stim	s172	False
220.511	1.0	2.816	220.51	0	PA_without_intermediate	test	ward_and_allport	-1	20.0	n/a	feedback	poldrack-single-stim	s172	False
223.333	1.371	1.371	224.704	1	PA_with_intermediate	test	ward_and_allport	89	21.0	1.371	to_hand	poldrack-single-stim	s172	False
224.706	0.1	0.793	225.499	0	PA_with_intermediate	test	ward_and_allport	71	21.0	0.793	to_board	poldrack-single-stim	s172	False
225.506	0.1	0.464	225.97	0	PA_with_intermediate	test	ward_and_allport	89	21.0	0.464	to_hand	poldrack-single-stim	s172	False
225.971	0.1	0.414	226.385	0	PA_with_intermediate	test	ward_and_allport	82	21.0	0.414	to_board	poldrack-single-stim	s172	False
226.391	0.1	0.324	226.715	0	PA_with_intermediate	test	ward_and_allport	71	21.0	0.324	to_hand	poldrack-single-stim	s172	False
226.717	0.1	0.308	227.025	0	PA_with_intermediate	test	ward_and_allport	82	21.0	0.308	to_board	poldrack-single-stim	s172	False
227.033	1.0	2.952	227.032	0	PA_with_intermediate	test	ward_and_allport	-1	21.0	n/a	feedback	poldrack-single-stim	s172	False
229.992	1.371	1.371	231.363	1	PA_with_intermediate	test	ward_and_allport	71	22.0	1.371	to_hand	poldrack-single-stim	s172	False
231.364	0.1	0.939	232.303	0	PA_with_intermediate	test	ward_and_allport	89	22.0	0.939	to_board	poldrack-single-stim	s172	False
232.31	0.1	0.304	232.614	0	PA_with_intermediate	test	ward_and_allport	71	22.0	0.304	to_hand	poldrack-single-stim	s172	False
232.615	0.1	0.309	232.924	0	PA_with_intermediate	test	ward_and_allport	82	22.0	0.309	to_board	poldrack-single-stim	s172	False
232.931	0.1	0.284	233.215	0	PA_with_intermediate	test	ward_and_allport	89	22.0	0.284	to_hand	poldrack-single-stim	s172	False
233.216	0.1	0.271	233.487	0	PA_with_intermediate	test	ward_and_allport	71	22.0	0.271	to_board	poldrack-single-stim	s172	False
233.494	0.1	0.989	234.483	0	PA_with_intermediate	test	ward_and_allport	71	22.0	0.989	to_hand	poldrack-single-stim	s172	False
234.484	0.1	0.282	234.766	0	PA_with_intermediate	test	ward_and_allport	82	22.0	0.282	to_board	poldrack-single-stim	s172	False
234.775	1.0	2.136	234.774	0	PA_with_intermediate	test	ward_and_allport	-1	22.0	n/a	feedback	poldrack-single-stim	s172	False
236.919	1.117	1.117	238.036	1	PA_without_intermediate	test	ward_and_allport	71	23.0	1.117	to_hand	poldrack-single-stim	s172	False
238.038	0.1	0.299	238.337	0	PA_without_intermediate	test	ward_and_allport	82	23.0	0.299	to_board	poldrack-single-stim	s172	False
238.344	0.1	0.297	238.641	0	PA_without_intermediate	test	ward_and_allport	71	23.0	0.297	to_hand	poldrack-single-stim	s172	False
238.642	0.1	0.309	238.951	0	PA_without_intermediate	test	ward_and_allport	82	23.0	0.309	to_board	poldrack-single-stim	s172	False
238.957	0.1	1.052	240.009	0	PA_without_intermediate	test	ward_and_allport	71	23.0	1.052	to_hand	poldrack-single-stim	s172	False
240.011	0.1	0.256	240.267	0	PA_without_intermediate	test	ward_and_allport	89	23.0	0.256	to_board	poldrack-single-stim	s172	False
240.274	1.0	2.68	240.273	0	PA_without_intermediate	test	ward_and_allport	-1	23.0	n/a	feedback	poldrack-single-stim	s172	False
242.961	1.087	1.087	244.048	1	PA_without_intermediate	test	ward_and_allport	71	24.0	1.087	to_hand	poldrack-single-stim	s172	False
244.05	0.1	0.449	244.499	0	PA_without_intermediate	test	ward_and_allport	89	24.0	0.449	to_board	poldrack-single-stim	s172	False
244.506	0.1	0.257	244.763	0	PA_without_intermediate	test	ward_and_allport	71	24.0	0.257	to_hand	poldrack-single-stim	s172	False
244.765	0.1	0.291	245.056	0	PA_without_intermediate	test	ward_and_allport	82	24.0	0.291	to_board	poldrack-single-stim	s172	False
245.063	0.1	0.305	245.368	0	PA_without_intermediate	test	ward_and_allport	71	24.0	0.305	to_hand	poldrack-single-stim	s172	False
245.369	0.1	0.3	245.669	0	PA_without_intermediate	test	ward_and_allport	89	24.0	0.3	to_board	poldrack-single-stim	s172	False
245.678	1.0	3.088	245.677	0	PA_without_intermediate	test	ward_and_allport	-1	24.0	n/a	feedback	poldrack-single-stim	s172	False
248.774	1.285	1.285	250.059	1	PA_with_intermediate	test	ward_and_allport	71	25.0	1.285	to_hand	poldrack-single-stim	s172	False
250.06	0.1	0.765	250.825	0	PA_with_intermediate	test	ward_and_allport	89	25.0	0.765	to_board	poldrack-single-stim	s172	False
250.832	0.1	0.227	251.059	0	PA_with_intermediate	test	ward_and_allport	71	25.0	0.227	to_hand	poldrack-single-stim	s172	False
251.06	0.1	0.285	251.345	0	PA_with_intermediate	test	ward_and_allport	82	25.0	0.285	to_board	poldrack-single-stim	s172	False
251.353	0.1	0.332	251.685	0	PA_with_intermediate	test	ward_and_allport	89	25.0	0.332	to_hand	poldrack-single-stim	s172	False
251.686	0.1	0.26	251.946	0	PA_with_intermediate	test	ward_and_allport	71	25.0	0.26	to_board	poldrack-single-stim	s172	False
251.956	1.0	2.0	251.955	0	PA_with_intermediate	test	ward_and_allport	-1	25.0	n/a	feedback	poldrack-single-stim	s172	False
253.965	1.81	1.81	255.775	1	PA_without_intermediate	test	ward_and_allport	82	26.0	1.81	to_hand	poldrack-single-stim	s172	False
255.775	0.1	0.338	256.113	0	PA_without_intermediate	test	ward_and_allport	89	26.0	0.338	to_board	poldrack-single-stim	s172	False
256.12	0.1	1.204	257.324	0	PA_without_intermediate	test	ward_and_allport	82	26.0	1.204	to_hand	poldrack-single-stim	s172	False
257.324	0.1	0.358	257.682	0	PA_without_intermediate	test	ward_and_allport	71	26.0	0.358	to_board	poldrack-single-stim	s172	False
257.687	0.1	0.988	258.675	0	PA_without_intermediate	test	ward_and_allport	82	26.0	0.988	to_hand	poldrack-single-stim	s172	False
258.677	0.1	0.221	258.898	0	PA_without_intermediate	test	ward_and_allport	89	26.0	0.221	to_board	poldrack-single-stim	s172	False
258.905	1.0	2.0	258.904	0	PA_without_intermediate	test	ward_and_allport	-1	26.0	n/a	feedback	poldrack-single-stim	s172	False
260.914	1.52	1.52	262.434	1	PA_without_intermediate	test	ward_and_allport	82	27.0	1.52	to_hand	poldrack-single-stim	s172	False
262.435	0.1	0.303	262.738	0	PA_without_intermediate	test	ward_and_allport	89	27.0	0.303	to_board	poldrack-single-stim	s172	False
262.746	0.1	0.818	263.564	0	PA_without_intermediate	test	ward_and_allport	82	27.0	0.818	to_hand	poldrack-single-stim	s172	False
263.566	0.1	0.332	263.898	0	PA_without_intermediate	test	ward_and_allport	89	27.0	0.332	to_board	poldrack-single-stim	s172	False
263.903	0.1	0.752	264.655	0	PA_without_intermediate	test	ward_and_allport	82	27.0	0.752	to_hand	poldrack-single-stim	s172	False
264.656	0.1	0.39	265.046	0	PA_without_intermediate	test	ward_and_allport	71	27.0	0.39	to_board	poldrack-single-stim	s172	False
265.054	1.0	2.0	265.053	0	PA_without_intermediate	test	ward_and_allport	-1	27.0	n/a	feedback	poldrack-single-stim	s172	False
267.06	1.366	1.366	268.426	1	PA_with_intermediate	test	ward_and_allport	89	28.0	1.366	to_hand	poldrack-single-stim	s172	False
268.427	0.1	0.93	269.357	0	PA_with_intermediate	test	ward_and_allport	71	28.0	0.93	to_board	poldrack-single-stim	s172	False
269.363	0.1	0.367	269.73	0	PA_with_intermediate	test	ward_and_allport	89	28.0	0.367	to_hand	poldrack-single-stim	s172	False
269.73	0.1	0.334	270.064	0	PA_with_intermediate	test	ward_and_allport	82	28.0	0.334	to_board	poldrack-single-stim	s172	False
270.073	0.1	0.556	270.629	0	PA_with_intermediate	test	ward_and_allport	71	28.0	0.556	to_hand	poldrack-single-stim	s172	False
270.631	0.1	0.285	270.916	0	PA_with_intermediate	test	ward_and_allport	89	28.0	0.285	to_board	poldrack-single-stim	s172	False
270.925	1.0	2.544	270.924	0	PA_with_intermediate	test	ward_and_allport	-1	28.0	n/a	feedback	poldrack-single-stim	s172	False
273.477	1.586	1.586	275.063	1	PA_without_intermediate	test	ward_and_allport	82	29.0	1.586	to_hand	poldrack-single-stim	s172	False
275.063	0.1	0.491	275.554	0	PA_without_intermediate	test	ward_and_allport	71	29.0	0.491	to_board	poldrack-single-stim	s172	False
275.56	0.1	0.402	275.962	0	PA_without_intermediate	test	ward_and_allport	82	29.0	0.402	to_hand	poldrack-single-stim	s172	False
275.962	0.1	0.381	276.343	0	PA_without_intermediate	test	ward_and_allport	71	29.0	0.381	to_board	poldrack-single-stim	s172	False
276.349	0.1	0.38	276.729	0	PA_without_intermediate	test	ward_and_allport	82	29.0	0.38	to_hand	poldrack-single-stim	s172	False
276.73	0.1	0.284	277.014	0	PA_without_intermediate	test	ward_and_allport	89	29.0	0.284	to_board	poldrack-single-stim	s172	False
277.022	1.0	2.272	277.021	0	PA_without_intermediate	test	ward_and_allport	-1	29.0	n/a	feedback	poldrack-single-stim	s172	False
284.302	1.149	1.149	285.451	1	PA_with_intermediate	test	ward_and_allport	71	30.0	1.149	to_hand	poldrack-single-stim	s172	False
285.453	0.1	1.141	286.594	0	PA_with_intermediate	test	ward_and_allport	82	30.0	1.141	to_board	poldrack-single-stim	s172	False
286.603	0.1	0.295	286.898	0	PA_with_intermediate	test	ward_and_allport	71	30.0	0.295	to_hand	poldrack-single-stim	s172	False
286.898	0.1	0.29	287.188	0	PA_with_intermediate	test	ward_and_allport	89	30.0	0.29	to_board	poldrack-single-stim	s172	False
287.198	0.1	0.312	287.51	0	PA_with_intermediate	test	ward_and_allport	82	30.0	0.312	to_hand	poldrack-single-stim	s172	False
287.511	0.1	0.287	287.798	0	PA_with_intermediate	test	ward_and_allport	71	30.0	0.287	to_board	poldrack-single-stim	s172	False
287.808	1.0	4.04	287.807	0	PA_with_intermediate	test	ward_and_allport	-1	30.0	n/a	feedback	poldrack-single-stim	s172	False
291.857	2.301	2.301	294.158	1	PA_with_intermediate	test	ward_and_allport	82	31.0	2.301	to_hand	poldrack-single-stim	s172	False
294.159	0.1	0.49	294.649	0	PA_with_intermediate	test	ward_and_allport	89	31.0	0.49	to_board	poldrack-single-stim	s172	False
294.656	0.1	1.019	295.675	0	PA_with_intermediate	test	ward_and_allport	82	31.0	1.019	to_hand	poldrack-single-stim	s172	False
295.677	0.1	0.392	296.069	0	PA_with_intermediate	test	ward_and_allport	71	31.0	0.392	to_board	poldrack-single-stim	s172	False
296.078	0.1	0.495	296.573	0	PA_with_intermediate	test	ward_and_allport	89	31.0	0.495	to_hand	poldrack-single-stim	s172	False
296.573	0.1	0.426	296.999	0	PA_with_intermediate	test	ward_and_allport	71	31.0	0.426	to_board	poldrack-single-stim	s172	False
297.01	1.0	2.272	297.009	0	PA_with_intermediate	test	ward_and_allport	-1	31.0	n/a	feedback	poldrack-single-stim	s172	False
299.289	1.279	1.279	300.568	1	PA_with_intermediate	test	ward_and_allport	71	32.0	1.279	to_hand	poldrack-single-stim	s172	False
300.569	0.1	0.822	301.391	0	PA_with_intermediate	test	ward_and_allport	89	32.0	0.822	to_board	poldrack-single-stim	s172	False
301.398	0.1	0.29	301.688	0	PA_with_intermediate	test	ward_and_allport	71	32.0	0.29	to_hand	poldrack-single-stim	s172	False
301.688	0.1	0.479	302.167	0	PA_with_intermediate	test	ward_and_allport	82	32.0	0.479	to_board	poldrack-single-stim	s172	False
302.174	0.1	0.449	302.623	0	PA_with_intermediate	test	ward_and_allport	89	32.0	0.449	to_hand	poldrack-single-stim	s172	False
302.623	0.1	0.252	302.875	0	PA_with_intermediate	test	ward_and_allport	71	32.0	0.252	to_board	poldrack-single-stim	s172	False
302.884	1.0	2.136	302.883	0	PA_with_intermediate	test	ward_and_allport	-1	32.0	n/a	feedback	poldrack-single-stim	s172	False
305.028	2.182	2.182	307.21	1	PA_with_intermediate	test	ward_and_allport	82	33.0	2.182	to_hand	poldrack-single-stim	s172	False
307.211	0.1	0.345	307.556	0	PA_with_intermediate	test	ward_and_allport	71	33.0	0.345	to_board	poldrack-single-stim	s172	False
307.565	0.1	0.381	307.946	0	PA_with_intermediate	test	ward_and_allport	82	33.0	0.381	to_hand	poldrack-single-stim	s172	False
307.946	0.1	0.372	308.318	0	PA_with_intermediate	test	ward_and_allport	89	33.0	0.372	to_board	poldrack-single-stim	s172	False
308.325	0.1	0.649	308.974	0	PA_with_intermediate	test	ward_and_allport	71	33.0	0.649	to_hand	poldrack-single-stim	s172	False
308.974	0.1	0.409	309.383	0	PA_with_intermediate	test	ward_and_allport	89	33.0	0.409	to_board	poldrack-single-stim	s172	False
309.392	1.0	2.0	309.391	0	PA_with_intermediate	test	ward_and_allport	-1	33.0	n/a	feedback	poldrack-single-stim	s172	False
311.398	1.69	1.69	313.088	1	PA_with_intermediate	test	ward_and_allport	71	34.0	1.69	to_hand	poldrack-single-stim	s172	False
313.089	0.1	0.38	313.469	0	PA_with_intermediate	test	ward_and_allport	82	34.0	0.38	to_board	poldrack-single-stim	s172	False
313.475	0.1	0.304	313.779	0	PA_with_intermediate	test	ward_and_allport	71	34.0	0.304	to_hand	poldrack-single-stim	s172	False
313.78	0.1	0.366	314.146	0	PA_with_intermediate	test	ward_and_allport	89	34.0	0.366	to_board	poldrack-single-stim	s172	False
314.153	0.1	0.5	314.653	0	PA_with_intermediate	test	ward_and_allport	82	34.0	0.5	to_hand	poldrack-single-stim	s172	False
314.653	0.1	0.354	315.007	0	PA_with_intermediate	test	ward_and_allport	89	34.0	0.354	to_board	poldrack-single-stim	s172	False
315.015	1.0	2.0	315.014	0	PA_with_intermediate	test	ward_and_allport	-1	34.0	n/a	feedback	poldrack-single-stim	s172	False
317.022	1.953	1.953	318.975	1	PA_without_intermediate	test	ward_and_allport	89	35.0	1.953	to_hand	poldrack-single-stim	s172	False
318.976	0.1	0.417	319.393	0	PA_without_intermediate	test	ward_and_allport	71	35.0	0.417	to_board	poldrack-single-stim	s172	False
319.4	0.1	0.827	320.227	0	PA_without_intermediate	test	ward_and_allport	89	35.0	0.827	to_hand	poldrack-single-stim	s172	False
320.228	0.1	0.468	320.696	0	PA_without_intermediate	test	ward_and_allport	71	35.0	0.468	to_board	poldrack-single-stim	s172	False
320.706	0.1	0.364	321.07	0	PA_without_intermediate	test	ward_and_allport	89	35.0	0.364	to_hand	poldrack-single-stim	s172	False
321.071	0.1	0.377	321.448	0	PA_without_intermediate	test	ward_and_allport	82	35.0	0.377	to_board	poldrack-single-stim	s172	False
321.457	1.0	2.408	321.456	0	PA_without_intermediate	test	ward_and_allport	-1	35.0	n/a	feedback	poldrack-single-stim	s172	False
323.873	1.487	1.487	325.36	1	PA_with_intermediate	test	ward_and_allport	89	36.0	1.487	to_hand	poldrack-single-stim	s172	False
325.361	0.1	1.092	326.453	0	PA_with_intermediate	test	ward_and_allport	82	36.0	1.092	to_board	poldrack-single-stim	s172	False
326.466	0.1	0.803	327.269	0	PA_with_intermediate	test	ward_and_allport	89	36.0	0.803	to_hand	poldrack-single-stim	s172	False
327.27	0.1	0.405	327.675	0	PA_with_intermediate	test	ward_and_allport	71	36.0	0.405	to_board	poldrack-single-stim	s172	False
327.686	0.1	0.739	328.425	0	PA_with_intermediate	test	ward_and_allport	82	36.0	0.739	to_hand	poldrack-single-stim	s172	False
328.425	0.1	0.33	328.755	0	PA_with_intermediate	test	ward_and_allport	89	36.0	0.33	to_board	poldrack-single-stim	s172	False
328.768	1.0	3.768	328.767	0	PA_with_intermediate	test	ward_and_allport	-1	36.0	n/a	feedback	poldrack-single-stim	s172	False
332.545	1.555	1.555	334.1	1	PA_with_intermediate	test	ward_and_allport	82	37.0	1.555	to_hand	poldrack-single-stim	s172	False
334.101	0.1	0.597	334.698	0	PA_with_intermediate	test	ward_and_allport	89	37.0	0.597	to_board	poldrack-single-stim	s172	False
334.705	0.1	0.703	335.408	0	PA_with_intermediate	test	ward_and_allport	82	37.0	0.703	to_hand	poldrack-single-stim	s172	False
335.41	0.1	0.349	335.759	0	PA_with_intermediate	test	ward_and_allport	71	37.0	0.349	to_board	poldrack-single-stim	s172	False
335.767	0.1	0.488	336.255	0	PA_with_intermediate	test	ward_and_allport	89	37.0	0.488	to_hand	poldrack-single-stim	s172	False
336.256	0.1	0.392	336.648	0	PA_with_intermediate	test	ward_and_allport	82	37.0	0.392	to_board	poldrack-single-stim	s172	False
336.658	1.0	2.68	336.657	0	PA_with_intermediate	test	ward_and_allport	-1	37.0	n/a	feedback	poldrack-single-stim	s172	False
339.348	0.992	0.992	340.34	1	PA_without_intermediate	test	ward_and_allport	71	38.0	0.992	to_hand	poldrack-single-stim	s172	False
340.342	0.1	0.377	340.719	0	PA_without_intermediate	test	ward_and_allport	82	38.0	0.377	to_board	poldrack-single-stim	s172	False
340.725	0.1	0.347	341.072	0	PA_without_intermediate	test	ward_and_allport	71	38.0	0.347	to_hand	poldrack-single-stim	s172	False
341.073	0.1	0.377	341.45	0	PA_without_intermediate	test	ward_and_allport	82	38.0	0.377	to_board	poldrack-single-stim	s172	False
341.457	0.1	1.199	342.656	0	PA_without_intermediate	test	ward_and_allport	71	38.0	1.199	to_hand	poldrack-single-stim	s172	False
342.657	0.1	0.285	342.942	0	PA_without_intermediate	test	ward_and_allport	89	38.0	0.285	to_board	poldrack-single-stim	s172	False
342.95	1.0	3.224	342.949	0	PA_without_intermediate	test	ward_and_allport	-1	38.0	n/a	feedback	poldrack-single-stim	s172	False
346.18	1.378	1.378	347.558	1	PA_without_intermediate	test	ward_and_allport	89	39.0	1.378	to_hand	poldrack-single-stim	s172	False
347.559	0.1	0.355	347.914	0	PA_without_intermediate	test	ward_and_allport	82	39.0	0.355	to_board	poldrack-single-stim	s172	False
347.923	0.1	0.475	348.398	0	PA_without_intermediate	test	ward_and_allport	89	39.0	0.475	to_hand	poldrack-single-stim	s172	False
348.399	0.1	0.349	348.748	0	PA_without_intermediate	test	ward_and_allport	82	39.0	0.349	to_board	poldrack-single-stim	s172	False
348.756	0.1	0.503	349.259	0	PA_without_intermediate	test	ward_and_allport	89	39.0	0.503	to_hand	poldrack-single-stim	s172	False
349.261	0.1	0.321	349.582	0	PA_without_intermediate	test	ward_and_allport	71	39.0	0.321	to_board	poldrack-single-stim	s172	False
349.592	1.0	3.36	349.591	0	PA_without_intermediate	test	ward_and_allport	-1	39.0	n/a	feedback	poldrack-single-stim	s172	False
352.961	1.258	1.258	354.219	1	PA_without_intermediate	test	ward_and_allport	89	40.0	1.258	to_hand	poldrack-single-stim	s172	False
354.221	0.1	0.422	354.643	0	PA_without_intermediate	test	ward_and_allport	71	40.0	0.422	to_board	poldrack-single-stim	s172	False
354.653	0.1	0.345	354.998	0	PA_without_intermediate	test	ward_and_allport	89	40.0	0.345	to_hand	poldrack-single-stim	s172	False
354.998	0.1	0.269	355.267	0	PA_without_intermediate	test	ward_and_allport	71	40.0	0.269	to_board	poldrack-single-stim	s172	False
355.276	0.1	0.305	355.581	0	PA_without_intermediate	test	ward_and_allport	89	40.0	0.305	to_hand	poldrack-single-stim	s172	False
355.582	0.1	0.318	355.9	0	PA_without_intermediate	test	ward_and_allport	82	40.0	0.318	to_board	poldrack-single-stim	s172	False
355.909	1.0	2.0	355.908	0	PA_without_intermediate	test	ward_and_allport	-1	40.0	n/a	feedback	poldrack-single-stim	s172	False
357.917	1.217	1.217	359.134	1	PA_without_intermediate	test	ward_and_allport	82	41.0	1.217	to_hand	poldrack-single-stim	s172	False
359.134	0.1	0.422	359.556	0	PA_without_intermediate	test	ward_and_allport	71	41.0	0.422	to_board	poldrack-single-stim	s172	False
359.564	0.1	0.358	359.922	0	PA_without_intermediate	test	ward_and_allport	82	41.0	0.358	to_hand	poldrack-single-stim	s172	False
359.924	0.1	0.377	360.301	0	PA_without_intermediate	test	ward_and_allport	71	41.0	0.377	to_board	poldrack-single-stim	s172	False
360.309	0.1	0.569	360.878	0	PA_without_intermediate	test	ward_and_allport	82	41.0	0.569	to_hand	poldrack-single-stim	s172	False
360.879	0.1	0.38	361.259	0	PA_without_intermediate	test	ward_and_allport	89	41.0	0.38	to_board	poldrack-single-stim	s172	False
361.269	1.0	2.408	361.268	0	PA_without_intermediate	test	ward_and_allport	-1	41.0	n/a	feedback	poldrack-single-stim	s172	False
363.684	0.77	0.77	364.454	1	PA_with_intermediate	test	ward_and_allport	89	42.0	0.77	to_hand	poldrack-single-stim	s172	False
364.455	0.1	0.98	365.435	0	PA_with_intermediate	test	ward_and_allport	89	42.0	0.98	to_board	poldrack-single-stim	s172	False
365.442	0.1	1.368	366.81	0	PA_with_intermediate	test	ward_and_allport	89	42.0	1.368	to_hand	poldrack-single-stim	s172	False
366.812	0.1	0.59	367.402	0	PA_with_intermediate	test	ward_and_allport	82	42.0	0.59	to_board	poldrack-single-stim	s172	False
367.41	0.1	0.55	367.96	0	PA_with_intermediate	test	ward_and_allport	89	42.0	0.55	to_hand	poldrack-single-stim	s172	False
367.961	0.1	0.342	368.303	0	PA_with_intermediate	test	ward_and_allport	71	42.0	0.342	to_board	poldrack-single-stim	s172	False
368.31	0.1	0.359	368.669	0	PA_with_intermediate	test	ward_and_allport	82	42.0	0.359	to_hand	poldrack-single-stim	s172	False
368.67	0.1	0.372	369.042	0	PA_with_intermediate	test	ward_and_allport	89	42.0	0.372	to_board	poldrack-single-stim	s172	False
369.052	1.0	2.136	369.051	0	PA_with_intermediate	test	ward_and_allport	-1	42.0	n/a	feedback	poldrack-single-stim	s172	False
371.196	1.161	1.161	372.357	1	PA_without_intermediate	test	ward_and_allport	89	43.0	1.161	to_hand	poldrack-single-stim	s172	False
372.358	0.1	0.35	372.708	0	PA_without_intermediate	test	ward_and_allport	82	43.0	0.35	to_board	poldrack-single-stim	s172	False
372.715	0.1	1.14	373.855	0	PA_without_intermediate	test	ward_and_allport	89	43.0	1.14	to_hand	poldrack-single-stim	s172	False
373.856	0.1	0.381	374.237	0	PA_without_intermediate	test	ward_and_allport	71	43.0	0.381	to_board	poldrack-single-stim	s172	False
374.246	0.1	0.442	374.688	0	PA_without_intermediate	test	ward_and_allport	89	43.0	0.442	to_hand	poldrack-single-stim	s172	False
374.688	0.1	0.286	374.974	0	PA_without_intermediate	test	ward_and_allport	82	43.0	0.286	to_board	poldrack-single-stim	s172	False
374.983	1.0	5.128	374.982	0	PA_without_intermediate	test	ward_and_allport	-1	43.0	n/a	feedback	poldrack-single-stim	s172	False
380.121	0.946	0.946	381.067	1	PA_without_intermediate	test	ward_and_allport	71	44.0	0.946	to_hand	poldrack-single-stim	s172	False
381.067	0.1	0.369	381.436	0	PA_without_intermediate	test	ward_and_allport	89	44.0	0.369	to_board	poldrack-single-stim	s172	False
381.447	0.1	0.275	381.722	0	PA_without_intermediate	test	ward_and_allport	71	44.0	0.275	to_hand	poldrack-single-stim	s172	False
381.723	0.1	0.345	382.068	0	PA_without_intermediate	test	ward_and_allport	82	44.0	0.345	to_board	poldrack-single-stim	s172	False
382.079	0.1	0.318	382.397	0	PA_without_intermediate	test	ward_and_allport	71	44.0	0.318	to_hand	poldrack-single-stim	s172	False
382.398	0.1	0.313	382.711	0	PA_without_intermediate	test	ward_and_allport	89	44.0	0.313	to_board	poldrack-single-stim	s172	False
382.722	1.0	2.136	382.721	0	PA_without_intermediate	test	ward_and_allport	-1	44.0	n/a	feedback	poldrack-single-stim	s172	False
389.868	1.114	1.114	390.982	1	PA_without_intermediate	test	ward_and_allport	89	45.0	1.114	to_hand	poldrack-single-stim	s172	False
390.984	0.1	0.499	391.483	0	PA_without_intermediate	test	ward_and_allport	71	45.0	0.499	to_board	poldrack-single-stim	s172	False
391.493	0.1	0.492	391.985	0	PA_without_intermediate	test	ward_and_allport	89	45.0	0.492	to_hand	poldrack-single-stim	s172	False
391.987	0.1	0.318	392.305	0	PA_without_intermediate	test	ward_and_allport	82	45.0	0.318	to_board	poldrack-single-stim	s172	False
392.316	0.1	0.282	392.598	0	PA_without_intermediate	test	ward_and_allport	89	45.0	0.282	to_hand	poldrack-single-stim	s172	False
392.599	0.1	0.268	392.867	0	PA_without_intermediate	test	ward_and_allport	71	45.0	0.268	to_board	poldrack-single-stim	s172	False
392.88	1.0	5.264	392.879	0	PA_without_intermediate	test	ward_and_allport	-1	45.0	n/a	feedback	poldrack-single-stim	s172	False
398.156	1.85	1.85	400.006	1	PA_with_intermediate	test	ward_and_allport	89	46.0	1.85	to_hand	poldrack-single-stim	s172	False
400.007	0.1	0.343	400.35	0	PA_with_intermediate	test	ward_and_allport	82	46.0	0.343	to_board	poldrack-single-stim	s172	False
400.363	0.1	0.802	401.165	0	PA_with_intermediate	test	ward_and_allport	89	46.0	0.802	to_hand	poldrack-single-stim	s172	False
401.166	0.1	0.448	401.614	0	PA_with_intermediate	test	ward_and_allport	71	46.0	0.448	to_board	poldrack-single-stim	s172	False
401.625	0.1	0.621	402.246	0	PA_with_intermediate	test	ward_and_allport	82	46.0	0.621	to_hand	poldrack-single-stim	s172	False
402.247	0.1	0.351	402.598	0	PA_with_intermediate	test	ward_and_allport	71	46.0	0.351	to_board	poldrack-single-stim	s172	False
402.61	1.0	4.04	402.609	0	PA_with_intermediate	test	ward_and_allport	-1	46.0	n/a	feedback	poldrack-single-stim	s172	False
406.658	0.747	0.747	407.405	1	PA_with_intermediate	test	ward_and_allport	71	47.0	0.747	to_hand	poldrack-single-stim	s172	False
407.407	0.1	1.196	408.603	0	PA_with_intermediate	test	ward_and_allport	82	47.0	1.196	to_board	poldrack-single-stim	s172	False
408.616	0.1	0.328	408.944	0	PA_with_intermediate	test	ward_and_allport	71	47.0	0.328	to_hand	poldrack-single-stim	s172	False
408.945	0.1	0.297	409.242	0	PA_with_intermediate	test	ward_and_allport	89	47.0	0.297	to_board	poldrack-single-stim	s172	False
409.253	0.1	0.353	409.606	0	PA_with_intermediate	test	ward_and_allport	82	47.0	0.353	to_hand	poldrack-single-stim	s172	False
409.607	0.1	0.289	409.896	0	PA_with_intermediate	test	ward_and_allport	71	47.0	0.289	to_board	poldrack-single-stim	s172	False
409.909	1.0	2.136	409.908	0	PA_with_intermediate	test	ward_and_allport	-1	47.0	n/a	feedback	poldrack-single-stim	s172	False
