onset	duration	block_duration	movement_onset	planning	condition	exp_stage	experiment_exp_id	key_press	problem_id	response_time	trial_id	trial_type	worker_id	junk
3.008	7.923	7.923	10.931	1	UA_with_intermediate	practice	ward_and_allport	71	0.0	7.923	to_hand	poldrack-single-stim	s518	False
10.932	0.1	0.84	11.772	0	UA_with_intermediate	practice	ward_and_allport	82	0.0	0.84	to_board	poldrack-single-stim	s518	False
11.774	0.1	1.524	13.298	0	UA_with_intermediate	practice	ward_and_allport	71	0.0	1.524	to_hand	poldrack-single-stim	s518	False
13.298	0.1	1.775	15.073	0	UA_with_intermediate	practice	ward_and_allport	89	0.0	1.775	to_board	poldrack-single-stim	s518	False
15.074	0.1	1.249	16.323	0	UA_with_intermediate	practice	ward_and_allport	82	0.0	1.249	to_hand	poldrack-single-stim	s518	False
16.324	0.1	0.979	17.303	0	UA_with_intermediate	practice	ward_and_allport	89	0.0	0.979	to_board	poldrack-single-stim	s518	False
17.307	1.0	2.5	17.306	0	UA_with_intermediate	practice	ward_and_allport	-1	0.0	n/a	feedback	poldrack-single-stim	s518	False
19.808	5.66	5.66	25.468	1	UA_with_intermediate	practice	ward_and_allport	89	1.0	5.66	to_hand	poldrack-single-stim	s518	False
25.47	0.1	1.336	26.806	0	UA_with_intermediate	practice	ward_and_allport	82	1.0	1.336	to_board	poldrack-single-stim	s518	False
26.809	0.1	0.928	27.737	0	UA_with_intermediate	practice	ward_and_allport	71	1.0	0.928	to_hand	poldrack-single-stim	s518	False
27.738	0.1	0.773	28.511	0	UA_with_intermediate	practice	ward_and_allport	89	1.0	0.773	to_board	poldrack-single-stim	s518	False
28.512	0.1	1.205	29.717	0	UA_with_intermediate	practice	ward_and_allport	82	1.0	1.205	to_hand	poldrack-single-stim	s518	False
29.717	0.1	0.555	30.272	0	UA_with_intermediate	practice	ward_and_allport	89	1.0	0.555	to_board	poldrack-single-stim	s518	False
30.275	1.0	2.1	30.274	0	UA_with_intermediate	practice	ward_and_allport	-1	1.0	n/a	feedback	poldrack-single-stim	s518	False
32.377	2.789	2.789	35.166	1	UA_without_intermediate	practice	ward_and_allport	82	2.0	2.789	to_hand	poldrack-single-stim	s518	False
35.166	0.1	0.653	35.819	0	UA_without_intermediate	practice	ward_and_allport	89	2.0	0.653	to_board	poldrack-single-stim	s518	False
35.821	0.1	1.449	37.27	0	UA_without_intermediate	practice	ward_and_allport	71	2.0	1.449	to_hand	poldrack-single-stim	s518	False
37.271	0.1	0.709	37.98	0	UA_without_intermediate	practice	ward_and_allport	89	2.0	0.709	to_board	poldrack-single-stim	s518	False
37.984	0.1	0.93	38.914	0	UA_without_intermediate	practice	ward_and_allport	71	2.0	0.93	to_hand	poldrack-single-stim	s518	False
38.915	0.1	0.451	39.366	0	UA_without_intermediate	practice	ward_and_allport	89	2.0	0.451	to_board	poldrack-single-stim	s518	False
39.368	1.0	2.2	39.367	0	UA_without_intermediate	practice	ward_and_allport	-1	2.0	n/a	feedback	poldrack-single-stim	s518	False
41.57	2.877	2.877	44.447	1	UA_without_intermediate	practice	ward_and_allport	71	3.0	2.877	to_hand	poldrack-single-stim	s518	False
44.448	0.1	1.307	45.755	0	UA_without_intermediate	practice	ward_and_allport	89	3.0	1.307	to_board	poldrack-single-stim	s518	False
45.758	0.1	1.276	47.034	0	UA_without_intermediate	practice	ward_and_allport	82	3.0	1.276	to_hand	poldrack-single-stim	s518	False
47.035	0.1	0.581	47.616	0	UA_without_intermediate	practice	ward_and_allport	89	3.0	0.581	to_board	poldrack-single-stim	s518	False
47.618	0.1	0.577	48.195	0	UA_without_intermediate	practice	ward_and_allport	71	3.0	0.577	to_hand	poldrack-single-stim	s518	False
48.196	0.1	0.392	48.588	0	UA_without_intermediate	practice	ward_and_allport	89	3.0	0.392	to_board	poldrack-single-stim	s518	False
48.591	1.0	2.0	48.59	0	UA_without_intermediate	practice	ward_and_allport	-1	3.0	n/a	feedback	poldrack-single-stim	s518	False
52.597	7.666	7.666	60.263	1	PA_with_intermediate	test	ward_and_allport	82	0.0	7.666	to_hand	poldrack-single-stim	s518	False
60.265	0.1	1.046	61.311	0	PA_with_intermediate	test	ward_and_allport	89	0.0	1.046	to_board	poldrack-single-stim	s518	False
61.313	0.1	2.695	64.008	0	PA_with_intermediate	test	ward_and_allport	82	0.0	2.695	to_hand	poldrack-single-stim	s518	False
64.008	0.1	0.63	64.638	0	PA_with_intermediate	test	ward_and_allport	71	0.0	0.63	to_board	poldrack-single-stim	s518	False
64.641	0.1	2.669	67.31	0	PA_with_intermediate	test	ward_and_allport	89	0.0	2.669	to_hand	poldrack-single-stim	s518	False
67.31	0.1	0.508	67.818	0	PA_with_intermediate	test	ward_and_allport	71	0.0	0.508	to_board	poldrack-single-stim	s518	False
67.822	1.0	4.176	67.821	0	PA_with_intermediate	test	ward_and_allport	-1	0.0	n/a	feedback	poldrack-single-stim	s518	False
72.0	4.441	4.441	76.441	1	PA_with_intermediate	test	ward_and_allport	89	1.0	4.441	to_hand	poldrack-single-stim	s518	False
76.442	0.1	1.653	78.095	0	PA_with_intermediate	test	ward_and_allport	71	1.0	1.653	to_board	poldrack-single-stim	s518	False
78.096	0.1	1.016	79.112	0	PA_with_intermediate	test	ward_and_allport	89	1.0	1.016	to_hand	poldrack-single-stim	s518	False
79.114	0.1	0.637	79.751	0	PA_with_intermediate	test	ward_and_allport	82	1.0	0.637	to_board	poldrack-single-stim	s518	False
79.754	0.1	0.84	80.594	0	PA_with_intermediate	test	ward_and_allport	71	1.0	0.84	to_hand	poldrack-single-stim	s518	False
80.595	0.1	1.197	81.792	0	PA_with_intermediate	test	ward_and_allport	82	1.0	1.197	to_board	poldrack-single-stim	s518	False
81.796	1.0	3.36	81.795	0	PA_with_intermediate	test	ward_and_allport	-1	1.0	n/a	feedback	poldrack-single-stim	s518	False
85.158	3.903	3.903	89.061	1	PA_with_intermediate	test	ward_and_allport	89	2.0	3.903	to_hand	poldrack-single-stim	s518	False
89.062	0.1	0.549	89.611	0	PA_with_intermediate	test	ward_and_allport	71	2.0	0.549	to_board	poldrack-single-stim	s518	False
89.613	0.1	0.977	90.59	0	PA_with_intermediate	test	ward_and_allport	89	2.0	0.977	to_hand	poldrack-single-stim	s518	False
90.592	0.1	0.671	91.263	0	PA_with_intermediate	test	ward_and_allport	82	2.0	0.671	to_board	poldrack-single-stim	s518	False
91.266	0.1	1.025	92.291	0	PA_with_intermediate	test	ward_and_allport	71	2.0	1.025	to_hand	poldrack-single-stim	s518	False
92.292	0.1	0.572	92.864	0	PA_with_intermediate	test	ward_and_allport	89	2.0	0.572	to_board	poldrack-single-stim	s518	False
92.867	1.0	2.0	92.866	0	PA_with_intermediate	test	ward_and_allport	-1	2.0	n/a	feedback	poldrack-single-stim	s518	False
94.87	3.976	3.976	98.846	1	PA_without_intermediate	test	ward_and_allport	82	3.0	3.976	to_hand	poldrack-single-stim	s518	False
98.847	0.1	1.759	100.606	0	PA_without_intermediate	test	ward_and_allport	71	3.0	1.759	to_board	poldrack-single-stim	s518	False
100.609	0.1	1.808	102.417	0	PA_without_intermediate	test	ward_and_allport	82	3.0	1.808	to_hand	poldrack-single-stim	s518	False
102.418	0.1	0.838	103.256	0	PA_without_intermediate	test	ward_and_allport	89	3.0	0.838	to_board	poldrack-single-stim	s518	False
103.259	0.1	1.417	104.676	0	PA_without_intermediate	test	ward_and_allport	82	3.0	1.417	to_hand	poldrack-single-stim	s518	False
104.677	0.1	0.583	105.26	0	PA_without_intermediate	test	ward_and_allport	71	3.0	0.583	to_board	poldrack-single-stim	s518	False
105.264	1.0	2.408	105.263	0	PA_without_intermediate	test	ward_and_allport	-1	3.0	n/a	feedback	poldrack-single-stim	s518	False
107.675	3.72	3.72	111.395	1	PA_with_intermediate	test	ward_and_allport	82	4.0	3.72	to_hand	poldrack-single-stim	s518	False
111.396	0.1	0.86	112.256	0	PA_with_intermediate	test	ward_and_allport	71	4.0	0.86	to_board	poldrack-single-stim	s518	False
112.259	0.1	2.175	114.434	0	PA_with_intermediate	test	ward_and_allport	82	4.0	2.175	to_hand	poldrack-single-stim	s518	False
114.435	0.1	0.798	115.233	0	PA_with_intermediate	test	ward_and_allport	89	4.0	0.798	to_board	poldrack-single-stim	s518	False
115.236	0.1	1.058	116.294	0	PA_with_intermediate	test	ward_and_allport	71	4.0	1.058	to_hand	poldrack-single-stim	s518	False
116.294	0.1	0.529	116.823	0	PA_with_intermediate	test	ward_and_allport	89	4.0	0.529	to_board	poldrack-single-stim	s518	False
116.827	1.0	2.816	116.826	0	PA_with_intermediate	test	ward_and_allport	-1	4.0	n/a	feedback	poldrack-single-stim	s518	False
119.646	3.314	3.314	122.96	1	PA_without_intermediate	test	ward_and_allport	71	5.0	3.314	to_hand	poldrack-single-stim	s518	False
122.961	0.1	0.804	123.765	0	PA_without_intermediate	test	ward_and_allport	89	5.0	0.804	to_board	poldrack-single-stim	s518	False
123.767	0.1	0.61	124.377	0	PA_without_intermediate	test	ward_and_allport	71	5.0	0.61	to_hand	poldrack-single-stim	s518	False
124.379	0.1	0.732	125.111	0	PA_without_intermediate	test	ward_and_allport	89	5.0	0.732	to_board	poldrack-single-stim	s518	False
125.114	0.1	0.89	126.004	0	PA_without_intermediate	test	ward_and_allport	71	5.0	0.89	to_hand	poldrack-single-stim	s518	False
126.005	0.1	0.534	126.539	0	PA_without_intermediate	test	ward_and_allport	82	5.0	0.534	to_board	poldrack-single-stim	s518	False
126.543	1.0	3.088	126.542	0	PA_without_intermediate	test	ward_and_allport	-1	5.0	n/a	feedback	poldrack-single-stim	s518	False
129.634	2.516	2.516	132.15	1	PA_without_intermediate	test	ward_and_allport	89	6.0	2.516	to_hand	poldrack-single-stim	s518	False
132.15	0.1	0.759	132.909	0	PA_without_intermediate	test	ward_and_allport	82	6.0	0.759	to_board	poldrack-single-stim	s518	False
132.911	0.1	1.219	134.13	0	PA_without_intermediate	test	ward_and_allport	89	6.0	1.219	to_hand	poldrack-single-stim	s518	False
134.132	0.1	0.861	134.993	0	PA_without_intermediate	test	ward_and_allport	82	6.0	0.861	to_board	poldrack-single-stim	s518	False
134.995	0.1	1.146	136.141	0	PA_without_intermediate	test	ward_and_allport	89	6.0	1.146	to_hand	poldrack-single-stim	s518	False
136.142	0.1	0.516	136.658	0	PA_without_intermediate	test	ward_and_allport	71	6.0	0.516	to_board	poldrack-single-stim	s518	False
136.663	1.0	2.136	136.662	0	PA_without_intermediate	test	ward_and_allport	-1	6.0	n/a	feedback	poldrack-single-stim	s518	False
138.802	3.291	3.291	142.093	1	PA_without_intermediate	test	ward_and_allport	82	7.0	3.291	to_hand	poldrack-single-stim	s518	False
142.094	0.1	0.825	142.919	0	PA_without_intermediate	test	ward_and_allport	89	7.0	0.825	to_board	poldrack-single-stim	s518	False
142.922	0.1	1.001	143.923	0	PA_without_intermediate	test	ward_and_allport	82	7.0	1.001	to_hand	poldrack-single-stim	s518	False
143.923	0.1	0.616	144.539	0	PA_without_intermediate	test	ward_and_allport	89	7.0	0.616	to_board	poldrack-single-stim	s518	False
144.543	0.1	2.337	146.88	0	PA_without_intermediate	test	ward_and_allport	82	7.0	2.337	to_hand	poldrack-single-stim	s518	False
146.882	0.1	0.737	147.619	0	PA_without_intermediate	test	ward_and_allport	71	7.0	0.737	to_board	poldrack-single-stim	s518	False
147.623	1.0	7.168	147.622	0	PA_without_intermediate	test	ward_and_allport	-1	7.0	n/a	feedback	poldrack-single-stim	s518	False
154.793	3.124	3.124	157.917	1	PA_without_intermediate	test	ward_and_allport	82	8.0	3.124	to_hand	poldrack-single-stim	s518	False
157.919	0.1	1.322	159.241	0	PA_without_intermediate	test	ward_and_allport	71	8.0	1.322	to_board	poldrack-single-stim	s518	False
159.243	0.1	0.717	159.96	0	PA_without_intermediate	test	ward_and_allport	82	8.0	0.717	to_hand	poldrack-single-stim	s518	False
159.962	0.1	0.988	160.95	0	PA_without_intermediate	test	ward_and_allport	71	8.0	0.988	to_board	poldrack-single-stim	s518	False
160.953	0.1	0.861	161.814	0	PA_without_intermediate	test	ward_and_allport	82	8.0	0.861	to_hand	poldrack-single-stim	s518	False
161.814	0.1	0.565	162.379	0	PA_without_intermediate	test	ward_and_allport	89	8.0	0.565	to_board	poldrack-single-stim	s518	False
162.385	1.0	2.816	162.384	0	PA_without_intermediate	test	ward_and_allport	-1	8.0	n/a	feedback	poldrack-single-stim	s518	False
165.204	5.195	5.195	170.399	1	PA_with_intermediate	test	ward_and_allport	89	9.0	5.195	to_hand	poldrack-single-stim	s518	False
170.4	0.1	0.457	170.857	0	PA_with_intermediate	test	ward_and_allport	71	9.0	0.457	to_board	poldrack-single-stim	s518	False
170.861	0.1	0.771	171.632	0	PA_with_intermediate	test	ward_and_allport	89	9.0	0.771	to_hand	poldrack-single-stim	s518	False
171.632	0.1	0.85	172.482	0	PA_with_intermediate	test	ward_and_allport	82	9.0	0.85	to_board	poldrack-single-stim	s518	False
172.487	0.1	1.475	173.962	0	PA_with_intermediate	test	ward_and_allport	71	9.0	1.475	to_hand	poldrack-single-stim	s518	False
173.963	0.1	0.517	174.48	0	PA_with_intermediate	test	ward_and_allport	89	9.0	0.517	to_board	poldrack-single-stim	s518	False
174.485	1.0	2.952	174.484	0	PA_with_intermediate	test	ward_and_allport	-1	9.0	n/a	feedback	poldrack-single-stim	s518	False
177.44	2.746	2.746	180.186	1	PA_with_intermediate	test	ward_and_allport	89	10.0	2.746	to_hand	poldrack-single-stim	s518	False
180.187	0.1	1.735	181.922	0	PA_with_intermediate	test	ward_and_allport	82	10.0	1.735	to_board	poldrack-single-stim	s518	False
181.926	0.1	0.707	182.633	0	PA_with_intermediate	test	ward_and_allport	89	10.0	0.707	to_hand	poldrack-single-stim	s518	False
182.634	0.1	0.583	183.217	0	PA_with_intermediate	test	ward_and_allport	71	10.0	0.583	to_board	poldrack-single-stim	s518	False
183.221	0.1	1.447	184.668	0	PA_with_intermediate	test	ward_and_allport	82	10.0	1.447	to_hand	poldrack-single-stim	s518	False
184.669	0.1	0.908	185.577	0	PA_with_intermediate	test	ward_and_allport	71	10.0	0.908	to_board	poldrack-single-stim	s518	False
185.583	1.0	2.136	185.582	0	PA_with_intermediate	test	ward_and_allport	-1	10.0	n/a	feedback	poldrack-single-stim	s518	False
187.723	2.476	2.476	190.199	1	PA_without_intermediate	test	ward_and_allport	71	11.0	2.476	to_hand	poldrack-single-stim	s518	False
190.201	0.1	1.317	191.518	0	PA_without_intermediate	test	ward_and_allport	82	11.0	1.317	to_board	poldrack-single-stim	s518	False
191.523	0.1	0.758	192.281	0	PA_without_intermediate	test	ward_and_allport	71	11.0	0.758	to_hand	poldrack-single-stim	s518	False
192.283	0.1	0.505	192.788	0	PA_without_intermediate	test	ward_and_allport	82	11.0	0.505	to_board	poldrack-single-stim	s518	False
192.792	0.1	0.573	193.365	0	PA_without_intermediate	test	ward_and_allport	71	11.0	0.573	to_hand	poldrack-single-stim	s518	False
193.366	0.1	0.457	193.823	0	PA_without_intermediate	test	ward_and_allport	89	11.0	0.457	to_board	poldrack-single-stim	s518	False
193.828	1.0	2.68	193.827	0	PA_without_intermediate	test	ward_and_allport	-1	11.0	n/a	feedback	poldrack-single-stim	s518	False
196.512	2.347	2.347	198.859	1	PA_without_intermediate	test	ward_and_allport	89	12.0	2.347	to_hand	poldrack-single-stim	s518	False
198.859	0.1	0.701	199.56	0	PA_without_intermediate	test	ward_and_allport	71	12.0	0.701	to_board	poldrack-single-stim	s518	False
199.565	0.1	0.719	200.284	0	PA_without_intermediate	test	ward_and_allport	89	12.0	0.719	to_hand	poldrack-single-stim	s518	False
200.284	0.1	0.461	200.745	0	PA_without_intermediate	test	ward_and_allport	71	12.0	0.461	to_board	poldrack-single-stim	s518	False
200.749	0.1	0.648	201.397	0	PA_without_intermediate	test	ward_and_allport	89	12.0	0.648	to_hand	poldrack-single-stim	s518	False
201.398	0.1	0.573	201.971	0	PA_without_intermediate	test	ward_and_allport	82	12.0	0.573	to_board	poldrack-single-stim	s518	False
201.977	1.0	3.088	201.976	0	PA_without_intermediate	test	ward_and_allport	-1	12.0	n/a	feedback	poldrack-single-stim	s518	False
205.07	5.083	5.083	210.153	1	PA_with_intermediate	test	ward_and_allport	82	13.0	5.083	to_hand	poldrack-single-stim	s518	False
210.154	0.1	0.613	210.767	0	PA_with_intermediate	test	ward_and_allport	89	13.0	0.613	to_board	poldrack-single-stim	s518	False
210.771	0.1	1.345	212.116	0	PA_with_intermediate	test	ward_and_allport	82	13.0	1.345	to_hand	poldrack-single-stim	s518	False
212.117	0.1	0.58	212.697	0	PA_with_intermediate	test	ward_and_allport	71	13.0	0.58	to_board	poldrack-single-stim	s518	False
212.702	0.1	0.954	213.656	0	PA_with_intermediate	test	ward_and_allport	89	13.0	0.954	to_hand	poldrack-single-stim	s518	False
213.657	0.1	0.618	214.275	0	PA_with_intermediate	test	ward_and_allport	82	13.0	0.618	to_board	poldrack-single-stim	s518	False
214.281	1.0	2.0	214.28	0	PA_with_intermediate	test	ward_and_allport	-1	13.0	n/a	feedback	poldrack-single-stim	s518	False
216.284	3.945	3.945	220.229	1	PA_without_intermediate	test	ward_and_allport	82	14.0	3.945	to_hand	poldrack-single-stim	s518	False
220.231	0.1	0.863	221.094	0	PA_without_intermediate	test	ward_and_allport	71	14.0	0.863	to_board	poldrack-single-stim	s518	False
221.098	0.1	0.687	221.785	0	PA_without_intermediate	test	ward_and_allport	82	14.0	0.687	to_hand	poldrack-single-stim	s518	False
221.785	0.1	0.971	222.756	0	PA_without_intermediate	test	ward_and_allport	71	14.0	0.971	to_board	poldrack-single-stim	s518	False
222.76	0.1	0.72	223.48	0	PA_without_intermediate	test	ward_and_allport	82	14.0	0.72	to_hand	poldrack-single-stim	s518	False
223.481	0.1	0.721	224.202	0	PA_without_intermediate	test	ward_and_allport	89	14.0	0.721	to_board	poldrack-single-stim	s518	False
224.207	1.0	2.0	224.206	0	PA_without_intermediate	test	ward_and_allport	-1	14.0	n/a	feedback	poldrack-single-stim	s518	False
231.214	3.119	3.119	234.333	1	PA_without_intermediate	test	ward_and_allport	82	15.0	3.119	to_hand	poldrack-single-stim	s518	False
234.333	0.1	1.278	235.611	0	PA_without_intermediate	test	ward_and_allport	89	15.0	1.278	to_board	poldrack-single-stim	s518	False
235.616	0.1	2.919	238.535	0	PA_without_intermediate	test	ward_and_allport	82	15.0	2.919	to_hand	poldrack-single-stim	s518	False
238.536	0.1	0.511	239.047	0	PA_without_intermediate	test	ward_and_allport	71	15.0	0.511	to_board	poldrack-single-stim	s518	False
239.052	0.1	1.441	240.493	0	PA_without_intermediate	test	ward_and_allport	82	15.0	1.441	to_hand	poldrack-single-stim	s518	False
240.494	0.1	1.125	241.619	0	PA_without_intermediate	test	ward_and_allport	89	15.0	1.125	to_board	poldrack-single-stim	s518	False
241.625	1.0	2.0	241.624	0	PA_without_intermediate	test	ward_and_allport	-1	15.0	n/a	feedback	poldrack-single-stim	s518	False
243.629	3.76	3.76	247.389	1	PA_with_intermediate	test	ward_and_allport	89	16.0	3.76	to_hand	poldrack-single-stim	s518	False
247.389	0.1	1.156	248.545	0	PA_with_intermediate	test	ward_and_allport	82	16.0	1.156	to_board	poldrack-single-stim	s518	False
248.549	0.1	0.702	249.251	0	PA_with_intermediate	test	ward_and_allport	89	16.0	0.702	to_hand	poldrack-single-stim	s518	False
249.251	0.1	0.516	249.767	0	PA_with_intermediate	test	ward_and_allport	71	16.0	0.516	to_board	poldrack-single-stim	s518	False
249.772	0.1	1.097	250.869	0	PA_with_intermediate	test	ward_and_allport	82	16.0	1.097	to_hand	poldrack-single-stim	s518	False
250.869	0.1	0.562	251.431	0	PA_with_intermediate	test	ward_and_allport	89	16.0	0.562	to_board	poldrack-single-stim	s518	False
251.437	1.0	2.544	251.436	0	PA_with_intermediate	test	ward_and_allport	-1	16.0	n/a	feedback	poldrack-single-stim	s518	False
253.985	1.811	1.811	255.796	1	PA_without_intermediate	test	ward_and_allport	89	17.0	1.811	to_hand	poldrack-single-stim	s518	False
255.798	0.1	0.863	256.661	0	PA_without_intermediate	test	ward_and_allport	82	17.0	0.863	to_board	poldrack-single-stim	s518	False
256.666	0.1	0.777	257.443	0	PA_without_intermediate	test	ward_and_allport	89	17.0	0.777	to_hand	poldrack-single-stim	s518	False
257.444	0.1	0.961	258.405	0	PA_without_intermediate	test	ward_and_allport	82	17.0	0.961	to_board	poldrack-single-stim	s518	False
258.411	0.1	0.765	259.176	0	PA_without_intermediate	test	ward_and_allport	89	17.0	0.765	to_hand	poldrack-single-stim	s518	False
259.177	0.1	0.541	259.718	0	PA_without_intermediate	test	ward_and_allport	71	17.0	0.541	to_board	poldrack-single-stim	s518	False
259.723	1.0	2.272	259.722	0	PA_without_intermediate	test	ward_and_allport	-1	17.0	n/a	feedback	poldrack-single-stim	s518	False
262.0	4.002	4.002	266.002	1	PA_with_intermediate	test	ward_and_allport	82	18.0	4.002	to_hand	poldrack-single-stim	s518	False
266.003	0.1	0.73	266.733	0	PA_with_intermediate	test	ward_and_allport	71	18.0	0.73	to_board	poldrack-single-stim	s518	False
266.739	0.1	2.058	268.797	0	PA_with_intermediate	test	ward_and_allport	82	18.0	2.058	to_hand	poldrack-single-stim	s518	False
268.799	0.1	0.754	269.553	0	PA_with_intermediate	test	ward_and_allport	89	18.0	0.754	to_board	poldrack-single-stim	s518	False
269.556	0.1	1.127	270.683	0	PA_with_intermediate	test	ward_and_allport	71	18.0	1.127	to_hand	poldrack-single-stim	s518	False
270.684	0.1	0.459	271.143	0	PA_with_intermediate	test	ward_and_allport	89	18.0	0.459	to_board	poldrack-single-stim	s518	False
271.149	1.0	4.04	271.148	0	PA_with_intermediate	test	ward_and_allport	-1	18.0	n/a	feedback	poldrack-single-stim	s518	False
275.194	4.62	4.62	279.814	1	PA_with_intermediate	test	ward_and_allport	71	19.0	4.62	to_hand	poldrack-single-stim	s518	False
279.815	0.1	0.576	280.391	0	PA_with_intermediate	test	ward_and_allport	89	19.0	0.576	to_board	poldrack-single-stim	s518	False
280.395	0.1	0.695	281.09	0	PA_with_intermediate	test	ward_and_allport	71	19.0	0.695	to_hand	poldrack-single-stim	s518	False
281.091	0.1	0.581	281.672	0	PA_with_intermediate	test	ward_and_allport	82	19.0	0.581	to_board	poldrack-single-stim	s518	False
281.677	0.1	1.33	283.007	0	PA_with_intermediate	test	ward_and_allport	89	19.0	1.33	to_hand	poldrack-single-stim	s518	False
283.008	0.1	0.757	283.765	0	PA_with_intermediate	test	ward_and_allport	82	19.0	0.757	to_board	poldrack-single-stim	s518	False
283.772	1.0	2.272	283.771	0	PA_with_intermediate	test	ward_and_allport	-1	19.0	n/a	feedback	poldrack-single-stim	s518	False
286.049	3.352	3.352	289.401	1	PA_with_intermediate	test	ward_and_allport	82	20.0	3.352	to_hand	poldrack-single-stim	s518	False
289.402	0.1	1.359	290.761	0	PA_with_intermediate	test	ward_and_allport	71	20.0	1.359	to_board	poldrack-single-stim	s518	False
290.766	0.1	0.957	291.723	0	PA_with_intermediate	test	ward_and_allport	82	20.0	0.957	to_hand	poldrack-single-stim	s518	False
291.724	0.1	0.643	292.367	0	PA_with_intermediate	test	ward_and_allport	89	20.0	0.643	to_board	poldrack-single-stim	s518	False
292.371	0.1	0.783	293.154	0	PA_with_intermediate	test	ward_and_allport	71	20.0	0.783	to_hand	poldrack-single-stim	s518	False
293.155	0.1	0.535	293.69	0	PA_with_intermediate	test	ward_and_allport	89	20.0	0.535	to_board	poldrack-single-stim	s518	False
293.696	0.1	3.693	297.389	0	PA_with_intermediate	test	ward_and_allport	89	20.0	3.693	to_hand	poldrack-single-stim	s518	False
297.389	0.1	0.658	298.047	0	PA_with_intermediate	test	ward_and_allport	82	20.0	0.658	to_board	poldrack-single-stim	s518	False
298.053	1.0	2.136	298.052	0	PA_with_intermediate	test	ward_and_allport	-1	20.0	n/a	feedback	poldrack-single-stim	s518	False
300.195	3.374	3.374	303.569	1	PA_with_intermediate	test	ward_and_allport	89	21.0	3.374	to_hand	poldrack-single-stim	s518	False
303.569	0.1	0.744	304.313	0	PA_with_intermediate	test	ward_and_allport	82	21.0	0.744	to_board	poldrack-single-stim	s518	False
304.319	0.1	0.862	305.181	0	PA_with_intermediate	test	ward_and_allport	89	21.0	0.862	to_hand	poldrack-single-stim	s518	False
305.182	0.1	0.53	305.712	0	PA_with_intermediate	test	ward_and_allport	71	21.0	0.53	to_board	poldrack-single-stim	s518	False
305.717	0.1	1.202	306.919	0	PA_with_intermediate	test	ward_and_allport	82	21.0	1.202	to_hand	poldrack-single-stim	s518	False
306.921	0.1	0.487	307.408	0	PA_with_intermediate	test	ward_and_allport	89	21.0	0.487	to_board	poldrack-single-stim	s518	False
307.415	1.0	2.0	307.414	0	PA_with_intermediate	test	ward_and_allport	-1	21.0	n/a	feedback	poldrack-single-stim	s518	False
309.42	3.935	3.935	313.355	1	PA_with_intermediate	test	ward_and_allport	71	22.0	3.935	to_hand	poldrack-single-stim	s518	False
313.357	0.1	1.049	314.406	0	PA_with_intermediate	test	ward_and_allport	82	22.0	1.049	to_board	poldrack-single-stim	s518	False
314.411	0.1	0.558	314.969	0	PA_with_intermediate	test	ward_and_allport	71	22.0	0.558	to_hand	poldrack-single-stim	s518	False
314.97	0.1	0.973	315.943	0	PA_with_intermediate	test	ward_and_allport	89	22.0	0.973	to_board	poldrack-single-stim	s518	False
315.949	0.1	1.278	317.227	0	PA_with_intermediate	test	ward_and_allport	82	22.0	1.278	to_hand	poldrack-single-stim	s518	False
317.228	0.1	1.112	318.34	0	PA_with_intermediate	test	ward_and_allport	89	22.0	1.112	to_board	poldrack-single-stim	s518	False
318.347	1.0	2.0	318.346	0	PA_with_intermediate	test	ward_and_allport	-1	22.0	n/a	feedback	poldrack-single-stim	s518	False
320.352	2.767	2.767	323.119	1	PA_without_intermediate	test	ward_and_allport	71	23.0	2.767	to_hand	poldrack-single-stim	s518	False
323.12	0.1	0.602	323.722	0	PA_without_intermediate	test	ward_and_allport	82	23.0	0.602	to_board	poldrack-single-stim	s518	False
323.728	0.1	0.947	324.675	0	PA_without_intermediate	test	ward_and_allport	71	23.0	0.947	to_hand	poldrack-single-stim	s518	False
324.676	0.1	0.592	325.268	0	PA_without_intermediate	test	ward_and_allport	89	23.0	0.592	to_board	poldrack-single-stim	s518	False
325.273	0.1	1.008	326.281	0	PA_without_intermediate	test	ward_and_allport	71	23.0	1.008	to_hand	poldrack-single-stim	s518	False
326.283	0.1	0.511	326.794	0	PA_without_intermediate	test	ward_and_allport	82	23.0	0.511	to_board	poldrack-single-stim	s518	False
326.801	1.0	2.408	326.8	0	PA_without_intermediate	test	ward_and_allport	-1	23.0	n/a	feedback	poldrack-single-stim	s518	False
329.215	2.246	2.246	331.461	1	PA_with_intermediate	test	ward_and_allport	71	24.0	2.246	to_hand	poldrack-single-stim	s518	False
331.462	0.1	2.014	333.476	0	PA_with_intermediate	test	ward_and_allport	89	24.0	2.014	to_board	poldrack-single-stim	s518	False
333.482	0.1	0.534	334.016	0	PA_with_intermediate	test	ward_and_allport	71	24.0	0.534	to_hand	poldrack-single-stim	s518	False
334.017	0.1	0.496	334.513	0	PA_with_intermediate	test	ward_and_allport	82	24.0	0.496	to_board	poldrack-single-stim	s518	False
334.519	0.1	0.92	335.439	0	PA_with_intermediate	test	ward_and_allport	89	24.0	0.92	to_hand	poldrack-single-stim	s518	False
335.44	0.1	0.467	335.907	0	PA_with_intermediate	test	ward_and_allport	71	24.0	0.467	to_board	poldrack-single-stim	s518	False
335.915	1.0	3.768	335.914	0	PA_with_intermediate	test	ward_and_allport	-1	24.0	n/a	feedback	poldrack-single-stim	s518	False
339.69	2.651	2.651	342.341	1	PA_with_intermediate	test	ward_and_allport	71	25.0	2.651	to_hand	poldrack-single-stim	s518	False
342.341	0.1	1.044	343.385	0	PA_with_intermediate	test	ward_and_allport	89	25.0	1.044	to_board	poldrack-single-stim	s518	False
343.391	0.1	0.416	343.807	0	PA_with_intermediate	test	ward_and_allport	71	25.0	0.416	to_hand	poldrack-single-stim	s518	False
343.808	0.1	0.456	344.264	0	PA_with_intermediate	test	ward_and_allport	82	25.0	0.456	to_board	poldrack-single-stim	s518	False
344.27	0.1	1.529	345.799	0	PA_with_intermediate	test	ward_and_allport	89	25.0	1.529	to_hand	poldrack-single-stim	s518	False
345.8	0.1	0.856	346.656	0	PA_with_intermediate	test	ward_and_allport	82	25.0	0.856	to_board	poldrack-single-stim	s518	False
346.663	1.0	2.68	346.662	0	PA_with_intermediate	test	ward_and_allport	-1	25.0	n/a	feedback	poldrack-single-stim	s518	False
349.35	3.929	3.929	353.279	1	PA_without_intermediate	test	ward_and_allport	82	26.0	3.929	to_hand	poldrack-single-stim	s518	False
353.28	0.1	0.481	353.761	0	PA_without_intermediate	test	ward_and_allport	71	26.0	0.481	to_board	poldrack-single-stim	s518	False
353.767	0.1	3.733	357.5	0	PA_without_intermediate	test	ward_and_allport	82	26.0	3.733	to_hand	poldrack-single-stim	s518	False
357.501	0.1	0.818	358.319	0	PA_without_intermediate	test	ward_and_allport	89	26.0	0.818	to_board	poldrack-single-stim	s518	False
358.326	0.1	1.523	359.849	0	PA_without_intermediate	test	ward_and_allport	82	26.0	1.523	to_hand	poldrack-single-stim	s518	False
359.849	0.1	0.578	360.427	0	PA_without_intermediate	test	ward_and_allport	71	26.0	0.578	to_board	poldrack-single-stim	s518	False
360.434	1.0	3.224	360.433	0	PA_without_intermediate	test	ward_and_allport	-1	26.0	n/a	feedback	poldrack-single-stim	s518	False
363.664	3.251	3.251	366.915	1	PA_without_intermediate	test	ward_and_allport	82	27.0	3.251	to_hand	poldrack-single-stim	s518	False
366.916	0.1	0.471	367.387	0	PA_without_intermediate	test	ward_and_allport	89	27.0	0.471	to_board	poldrack-single-stim	s518	False
367.393	0.1	0.651	368.044	0	PA_without_intermediate	test	ward_and_allport	82	27.0	0.651	to_hand	poldrack-single-stim	s518	False
368.044	0.1	0.585	368.629	0	PA_without_intermediate	test	ward_and_allport	89	27.0	0.585	to_board	poldrack-single-stim	s518	False
368.635	0.1	1.14	369.775	0	PA_without_intermediate	test	ward_and_allport	82	27.0	1.14	to_hand	poldrack-single-stim	s518	False
369.777	0.1	0.555	370.332	0	PA_without_intermediate	test	ward_and_allport	71	27.0	0.555	to_board	poldrack-single-stim	s518	False
370.34	1.0	3.36	370.339	0	PA_without_intermediate	test	ward_and_allport	-1	27.0	n/a	feedback	poldrack-single-stim	s518	False
373.706	2.034	2.034	375.74	1	PA_without_intermediate	test	ward_and_allport	89	28.0	2.034	to_hand	poldrack-single-stim	s518	False
375.741	0.1	0.599	376.34	0	PA_without_intermediate	test	ward_and_allport	71	28.0	0.599	to_board	poldrack-single-stim	s518	False
376.347	0.1	1.259	377.606	0	PA_without_intermediate	test	ward_and_allport	89	28.0	1.259	to_hand	poldrack-single-stim	s518	False
377.607	0.1	0.541	378.148	0	PA_without_intermediate	test	ward_and_allport	82	28.0	0.541	to_board	poldrack-single-stim	s518	False
378.154	0.1	0.685	378.839	0	PA_without_intermediate	test	ward_and_allport	89	28.0	0.685	to_hand	poldrack-single-stim	s518	False
378.84	0.1	0.65	379.49	0	PA_without_intermediate	test	ward_and_allport	71	28.0	0.65	to_board	poldrack-single-stim	s518	False
379.499	1.0	2.0	379.498	0	PA_without_intermediate	test	ward_and_allport	-1	28.0	n/a	feedback	poldrack-single-stim	s518	False
381.505	1.323	1.323	382.828	1	PA_without_intermediate	test	ward_and_allport	89	29.0	1.323	to_hand	poldrack-single-stim	s518	False
382.829	0.1	0.498	383.327	0	PA_without_intermediate	test	ward_and_allport	71	29.0	0.498	to_board	poldrack-single-stim	s518	False
383.334	0.1	1.01	384.344	0	PA_without_intermediate	test	ward_and_allport	89	29.0	1.01	to_hand	poldrack-single-stim	s518	False
384.345	0.1	0.626	384.971	0	PA_without_intermediate	test	ward_and_allport	82	29.0	0.626	to_board	poldrack-single-stim	s518	False
384.979	0.1	1.473	386.452	0	PA_without_intermediate	test	ward_and_allport	89	29.0	1.473	to_hand	poldrack-single-stim	s518	False
386.454	0.1	0.819	387.273	0	PA_without_intermediate	test	ward_and_allport	71	29.0	0.819	to_board	poldrack-single-stim	s518	False
387.281	1.0	2.408	387.28	0	PA_without_intermediate	test	ward_and_allport	-1	29.0	n/a	feedback	poldrack-single-stim	s518	False
394.699	4.015	4.015	398.714	1	PA_with_intermediate	test	ward_and_allport	71	30.0	4.015	to_hand	poldrack-single-stim	s518	False
398.714	0.1	1.278	399.992	0	PA_with_intermediate	test	ward_and_allport	82	30.0	1.278	to_board	poldrack-single-stim	s518	False
400.0	0.1	0.527	400.527	0	PA_with_intermediate	test	ward_and_allport	71	30.0	0.527	to_hand	poldrack-single-stim	s518	False
400.528	0.1	0.487	401.015	0	PA_with_intermediate	test	ward_and_allport	89	30.0	0.487	to_board	poldrack-single-stim	s518	False
401.022	0.1	2.44	403.462	0	PA_with_intermediate	test	ward_and_allport	82	30.0	2.44	to_hand	poldrack-single-stim	s518	False
403.463	0.1	0.837	404.3	0	PA_with_intermediate	test	ward_and_allport	71	30.0	0.837	to_board	poldrack-single-stim	s518	False
404.308	1.0	2.136	404.307	0	PA_with_intermediate	test	ward_and_allport	-1	30.0	n/a	feedback	poldrack-single-stim	s518	False
406.451	1.907	1.907	408.358	1	PA_without_intermediate	test	ward_and_allport	71	31.0	1.907	to_hand	poldrack-single-stim	s518	False
408.36	0.1	0.619	408.979	0	PA_without_intermediate	test	ward_and_allport	82	31.0	0.619	to_board	poldrack-single-stim	s518	False
408.985	0.1	0.87	409.855	0	PA_without_intermediate	test	ward_and_allport	71	31.0	0.87	to_hand	poldrack-single-stim	s518	False
409.857	0.1	0.601	410.458	0	PA_without_intermediate	test	ward_and_allport	82	31.0	0.601	to_board	poldrack-single-stim	s518	False
410.465	0.1	0.985	411.45	0	PA_without_intermediate	test	ward_and_allport	71	31.0	0.985	to_hand	poldrack-single-stim	s518	False
411.45	0.1	0.43	411.88	0	PA_without_intermediate	test	ward_and_allport	89	31.0	0.43	to_board	poldrack-single-stim	s518	False
411.89	1.0	5.128	411.889	0	PA_without_intermediate	test	ward_and_allport	-1	31.0	n/a	feedback	poldrack-single-stim	s518	False
417.026	1.604	1.604	418.63	1	PA_without_intermediate	test	ward_and_allport	71	32.0	1.604	to_hand	poldrack-single-stim	s518	False
418.632	0.1	0.976	419.608	0	PA_without_intermediate	test	ward_and_allport	89	32.0	0.976	to_board	poldrack-single-stim	s518	False
419.616	0.1	0.894	420.51	0	PA_without_intermediate	test	ward_and_allport	71	32.0	0.894	to_hand	poldrack-single-stim	s518	False
420.51	0.1	0.508	421.018	0	PA_without_intermediate	test	ward_and_allport	82	32.0	0.508	to_board	poldrack-single-stim	s518	False
421.027	0.1	0.682	421.709	0	PA_without_intermediate	test	ward_and_allport	71	32.0	0.682	to_hand	poldrack-single-stim	s518	False
421.71	0.1	0.917	422.627	0	PA_without_intermediate	test	ward_and_allport	89	32.0	0.917	to_board	poldrack-single-stim	s518	False
422.636	1.0	2.136	422.635	0	PA_without_intermediate	test	ward_and_allport	-1	32.0	n/a	feedback	poldrack-single-stim	s518	False
424.779	2.938	2.938	427.717	1	PA_without_intermediate	test	ward_and_allport	89	33.0	2.938	to_hand	poldrack-single-stim	s518	False
427.718	0.1	0.862	428.58	0	PA_without_intermediate	test	ward_and_allport	71	33.0	0.862	to_board	poldrack-single-stim	s518	False
428.586	0.1	0.622	429.208	0	PA_without_intermediate	test	ward_and_allport	89	33.0	0.622	to_hand	poldrack-single-stim	s518	False
429.208	0.1	0.459	429.667	0	PA_without_intermediate	test	ward_and_allport	71	33.0	0.459	to_board	poldrack-single-stim	s518	False
429.674	0.1	1.195	430.869	0	PA_without_intermediate	test	ward_and_allport	89	33.0	1.195	to_hand	poldrack-single-stim	s518	False
430.869	0.1	0.777	431.646	0	PA_without_intermediate	test	ward_and_allport	82	33.0	0.777	to_board	poldrack-single-stim	s518	False
431.656	1.0	5.264	431.655	0	PA_without_intermediate	test	ward_and_allport	-1	33.0	n/a	feedback	poldrack-single-stim	s518	False
436.93	4.885	4.885	441.815	1	PA_with_intermediate	test	ward_and_allport	82	34.0	4.885	to_hand	poldrack-single-stim	s518	False
441.816	0.1	1.034	442.85	0	PA_with_intermediate	test	ward_and_allport	89	34.0	1.034	to_board	poldrack-single-stim	s518	False
442.857	0.1	1.302	444.159	0	PA_with_intermediate	test	ward_and_allport	82	34.0	1.302	to_hand	poldrack-single-stim	s518	False
444.16	0.1	0.486	444.646	0	PA_with_intermediate	test	ward_and_allport	71	34.0	0.486	to_board	poldrack-single-stim	s518	False
444.655	0.1	1.811	446.466	0	PA_with_intermediate	test	ward_and_allport	89	34.0	1.811	to_hand	poldrack-single-stim	s518	False
446.467	0.1	0.775	447.242	0	PA_with_intermediate	test	ward_and_allport	71	34.0	0.775	to_board	poldrack-single-stim	s518	False
447.253	1.0	4.04	447.252	0	PA_with_intermediate	test	ward_and_allport	-1	34.0	n/a	feedback	poldrack-single-stim	s518	False
451.304	2.89	2.89	454.194	1	PA_with_intermediate	test	ward_and_allport	71	35.0	2.89	to_hand	poldrack-single-stim	s518	False
454.196	0.1	1.336	455.532	0	PA_with_intermediate	test	ward_and_allport	82	35.0	1.336	to_board	poldrack-single-stim	s518	False
455.541	0.1	0.457	455.998	0	PA_with_intermediate	test	ward_and_allport	71	35.0	0.457	to_hand	poldrack-single-stim	s518	False
456.0	0.1	0.545	456.545	0	PA_with_intermediate	test	ward_and_allport	89	35.0	0.545	to_board	poldrack-single-stim	s518	False
456.553	0.1	1.097	457.65	0	PA_with_intermediate	test	ward_and_allport	82	35.0	1.097	to_hand	poldrack-single-stim	s518	False
457.652	0.1	0.572	458.224	0	PA_with_intermediate	test	ward_and_allport	89	35.0	0.572	to_board	poldrack-single-stim	s518	False
458.234	1.0	2.136	458.233	0	PA_with_intermediate	test	ward_and_allport	-1	35.0	n/a	feedback	poldrack-single-stim	s518	False
460.377	2.885	2.885	463.262	1	PA_with_intermediate	test	ward_and_allport	71	36.0	2.885	to_hand	poldrack-single-stim	s518	False
463.263	0.1	0.498	463.761	0	PA_with_intermediate	test	ward_and_allport	89	36.0	0.498	to_board	poldrack-single-stim	s518	False
463.768	0.1	0.468	464.236	0	PA_with_intermediate	test	ward_and_allport	71	36.0	0.468	to_hand	poldrack-single-stim	s518	False
464.237	0.1	0.542	464.779	0	PA_with_intermediate	test	ward_and_allport	82	36.0	0.542	to_board	poldrack-single-stim	s518	False
464.788	0.1	1.222	466.01	0	PA_with_intermediate	test	ward_and_allport	89	36.0	1.222	to_hand	poldrack-single-stim	s518	False
466.011	0.1	0.394	466.405	0	PA_with_intermediate	test	ward_and_allport	71	36.0	0.394	to_board	poldrack-single-stim	s518	False
466.416	1.0	2.408	466.415	0	PA_with_intermediate	test	ward_and_allport	-1	36.0	n/a	feedback	poldrack-single-stim	s518	False
468.831	1.766	1.766	470.597	1	PA_without_intermediate	test	ward_and_allport	71	37.0	1.766	to_hand	poldrack-single-stim	s518	False
470.598	0.1	0.533	471.131	0	PA_without_intermediate	test	ward_and_allport	82	37.0	0.533	to_board	poldrack-single-stim	s518	False
471.138	0.1	0.594	471.732	0	PA_without_intermediate	test	ward_and_allport	71	37.0	0.594	to_hand	poldrack-single-stim	s518	False
471.733	0.1	0.639	472.372	0	PA_without_intermediate	test	ward_and_allport	89	37.0	0.639	to_board	poldrack-single-stim	s518	False
472.379	0.1	0.52	472.899	0	PA_without_intermediate	test	ward_and_allport	71	37.0	0.52	to_hand	poldrack-single-stim	s518	False
472.9	0.1	0.663	473.563	0	PA_without_intermediate	test	ward_and_allport	82	37.0	0.663	to_board	poldrack-single-stim	s518	False
473.572	1.0	2.68	473.571	0	PA_without_intermediate	test	ward_and_allport	-1	37.0	n/a	feedback	poldrack-single-stim	s518	False
476.263	2.123	2.123	478.386	1	PA_with_intermediate	test	ward_and_allport	71	38.0	2.123	to_hand	poldrack-single-stim	s518	False
478.387	0.1	2.91	481.297	0	PA_with_intermediate	test	ward_and_allport	82	38.0	2.91	to_board	poldrack-single-stim	s518	False
481.306	0.1	0.595	481.901	0	PA_with_intermediate	test	ward_and_allport	71	38.0	0.595	to_hand	poldrack-single-stim	s518	False
481.902	0.1	0.412	482.314	0	PA_with_intermediate	test	ward_and_allport	89	38.0	0.412	to_board	poldrack-single-stim	s518	False
482.322	0.1	0.862	483.184	0	PA_with_intermediate	test	ward_and_allport	82	38.0	0.862	to_hand	poldrack-single-stim	s518	False
483.185	0.1	0.524	483.709	0	PA_with_intermediate	test	ward_and_allport	71	38.0	0.524	to_board	poldrack-single-stim	s518	False
483.721	1.0	4.72	483.72	0	PA_with_intermediate	test	ward_and_allport	-1	38.0	n/a	feedback	poldrack-single-stim	s518	False
488.448	2.592	2.592	491.04	1	PA_without_intermediate	test	ward_and_allport	89	39.0	2.592	to_hand	poldrack-single-stim	s518	False
491.041	0.1	0.883	491.924	0	PA_without_intermediate	test	ward_and_allport	82	39.0	0.883	to_board	poldrack-single-stim	s518	False
491.934	0.1	1.891	493.825	0	PA_without_intermediate	test	ward_and_allport	89	39.0	1.891	to_hand	poldrack-single-stim	s518	False
493.826	0.1	0.547	494.373	0	PA_without_intermediate	test	ward_and_allport	71	39.0	0.547	to_board	poldrack-single-stim	s518	False
494.383	0.1	0.446	494.829	0	PA_without_intermediate	test	ward_and_allport	89	39.0	0.446	to_hand	poldrack-single-stim	s518	False
494.829	0.1	0.85	495.679	0	PA_without_intermediate	test	ward_and_allport	82	39.0	0.85	to_board	poldrack-single-stim	s518	False
495.69	1.0	3.224	495.689	0	PA_without_intermediate	test	ward_and_allport	-1	39.0	n/a	feedback	poldrack-single-stim	s518	False
498.923	1.931	1.931	500.854	1	PA_without_intermediate	test	ward_and_allport	89	40.0	1.931	to_hand	poldrack-single-stim	s518	False
500.855	0.1	0.717	501.572	0	PA_without_intermediate	test	ward_and_allport	82	40.0	0.717	to_board	poldrack-single-stim	s518	False
501.583	0.1	0.755	502.338	0	PA_without_intermediate	test	ward_and_allport	89	40.0	0.755	to_hand	poldrack-single-stim	s518	False
502.339	0.1	0.501	502.84	0	PA_without_intermediate	test	ward_and_allport	71	40.0	0.501	to_board	poldrack-single-stim	s518	False
502.849	0.1	0.534	503.383	0	PA_without_intermediate	test	ward_and_allport	89	40.0	0.534	to_hand	poldrack-single-stim	s518	False
503.385	0.1	0.577	503.962	0	PA_without_intermediate	test	ward_and_allport	82	40.0	0.577	to_board	poldrack-single-stim	s518	False
503.971	1.0	2.272	503.97	0	PA_without_intermediate	test	ward_and_allport	-1	40.0	n/a	feedback	poldrack-single-stim	s518	False
506.25	2.876	2.876	509.126	1	PA_with_intermediate	test	ward_and_allport	82	41.0	2.876	to_hand	poldrack-single-stim	s518	False
509.128	0.1	0.762	509.89	0	PA_with_intermediate	test	ward_and_allport	89	41.0	0.762	to_board	poldrack-single-stim	s518	False
509.896	0.1	0.644	510.54	0	PA_with_intermediate	test	ward_and_allport	82	41.0	0.644	to_hand	poldrack-single-stim	s518	False
510.542	0.1	0.786	511.328	0	PA_with_intermediate	test	ward_and_allport	71	41.0	0.786	to_board	poldrack-single-stim	s518	False
511.335	0.1	0.911	512.246	0	PA_with_intermediate	test	ward_and_allport	89	41.0	0.911	to_hand	poldrack-single-stim	s518	False
512.247	0.1	0.63	512.877	0	PA_with_intermediate	test	ward_and_allport	82	41.0	0.63	to_board	poldrack-single-stim	s518	False
512.889	1.0	3.632	512.888	0	PA_with_intermediate	test	ward_and_allport	-1	41.0	n/a	feedback	poldrack-single-stim	s518	False
516.531	2.522	2.522	519.053	1	PA_without_intermediate	test	ward_and_allport	82	42.0	2.522	to_hand	poldrack-single-stim	s518	False
519.054	0.1	0.718	519.772	0	PA_without_intermediate	test	ward_and_allport	89	42.0	0.718	to_board	poldrack-single-stim	s518	False
519.782	0.1	1.823	521.605	0	PA_without_intermediate	test	ward_and_allport	82	42.0	1.823	to_hand	poldrack-single-stim	s518	False
521.605	0.1	0.473	522.078	0	PA_without_intermediate	test	ward_and_allport	71	42.0	0.473	to_board	poldrack-single-stim	s518	False
522.088	0.1	0.67	522.758	0	PA_without_intermediate	test	ward_and_allport	82	42.0	0.67	to_hand	poldrack-single-stim	s518	False
522.758	0.1	0.535	523.293	0	PA_without_intermediate	test	ward_and_allport	89	42.0	0.535	to_board	poldrack-single-stim	s518	False
523.305	1.0	2.408	523.304	0	PA_without_intermediate	test	ward_and_allport	-1	42.0	n/a	feedback	poldrack-single-stim	s518	False
525.72	2.554	2.554	528.274	1	PA_without_intermediate	test	ward_and_allport	71	43.0	2.554	to_hand	poldrack-single-stim	s518	False
528.275	0.1	0.9	529.175	0	PA_without_intermediate	test	ward_and_allport	89	43.0	0.9	to_board	poldrack-single-stim	s518	False
529.182	0.1	0.806	529.988	0	PA_without_intermediate	test	ward_and_allport	71	43.0	0.806	to_hand	poldrack-single-stim	s518	False
529.988	0.1	0.522	530.51	0	PA_without_intermediate	test	ward_and_allport	89	43.0	0.522	to_board	poldrack-single-stim	s518	False
530.519	0.1	0.779	531.298	0	PA_without_intermediate	test	ward_and_allport	71	43.0	0.779	to_hand	poldrack-single-stim	s518	False
531.3	0.1	0.809	532.109	0	PA_without_intermediate	test	ward_and_allport	82	43.0	0.809	to_board	poldrack-single-stim	s518	False
532.12	1.0	2.0	532.119	0	PA_without_intermediate	test	ward_and_allport	-1	43.0	n/a	feedback	poldrack-single-stim	s518	False
534.131	2.592	2.592	536.723	1	PA_with_intermediate	test	ward_and_allport	82	44.0	2.592	to_hand	poldrack-single-stim	s518	False
536.724	0.1	2.595	539.319	0	PA_with_intermediate	test	ward_and_allport	89	44.0	2.595	to_board	poldrack-single-stim	s518	False
539.326	0.1	0.792	540.118	0	PA_with_intermediate	test	ward_and_allport	82	44.0	0.792	to_hand	poldrack-single-stim	s518	False
540.119	0.1	1.165	541.284	0	PA_with_intermediate	test	ward_and_allport	71	44.0	1.165	to_board	poldrack-single-stim	s518	False
541.292	0.1	1.239	542.531	0	PA_with_intermediate	test	ward_and_allport	89	44.0	1.239	to_hand	poldrack-single-stim	s518	False
542.533	0.1	0.537	543.07	0	PA_with_intermediate	test	ward_and_allport	82	44.0	0.537	to_board	poldrack-single-stim	s518	False
543.079	0.1	0.689	543.768	0	PA_with_intermediate	test	ward_and_allport	71	44.0	0.689	to_hand	poldrack-single-stim	s518	False
543.769	0.1	0.536	544.305	0	PA_with_intermediate	test	ward_and_allport	89	44.0	0.536	to_board	poldrack-single-stim	s518	False
544.316	1.0	2.0	544.315	0	PA_with_intermediate	test	ward_and_allport	-1	44.0	n/a	feedback	poldrack-single-stim	s518	False
551.328	2.177	2.177	553.505	1	PA_with_intermediate	test	ward_and_allport	89	45.0	2.177	to_hand	poldrack-single-stim	s518	False
553.506	0.1	1.119	554.625	0	PA_with_intermediate	test	ward_and_allport	82	45.0	1.119	to_board	poldrack-single-stim	s518	False
554.635	0.1	0.602	555.237	0	PA_with_intermediate	test	ward_and_allport	89	45.0	0.602	to_hand	poldrack-single-stim	s518	False
555.239	0.1	0.492	555.731	0	PA_with_intermediate	test	ward_and_allport	71	45.0	0.492	to_board	poldrack-single-stim	s518	False
555.741	0.1	0.597	556.338	0	PA_with_intermediate	test	ward_and_allport	82	45.0	0.597	to_hand	poldrack-single-stim	s518	False
556.339	0.1	0.595	556.934	0	PA_with_intermediate	test	ward_and_allport	71	45.0	0.595	to_board	poldrack-single-stim	s518	False
556.946	1.0	2.0	556.945	0	PA_with_intermediate	test	ward_and_allport	-1	45.0	n/a	feedback	poldrack-single-stim	s518	False
