onset	duration	block_duration	movement_onset	planning	condition	exp_stage	experiment_exp_id	key_press	problem_id	response_time	trial_id	trial_type	worker_id	junk
3.016	3.524	3.524	6.54	1	UA_with_intermediate	practice	ward_and_allport	71	0.0	3.524	to_hand	poldrack-single-stim	s573	False
6.54	0.1	0.942	7.482	0	UA_with_intermediate	practice	ward_and_allport	89	0.0	0.942	to_board	poldrack-single-stim	s573	False
7.485	0.1	6.042	13.527	0	UA_with_intermediate	practice	ward_and_allport	71	0.0	6.042	to_hand	poldrack-single-stim	s573	False
13.527	0.1	1.777	15.304	0	UA_with_intermediate	practice	ward_and_allport	82	0.0	1.777	to_board	poldrack-single-stim	s573	False
15.306	0.1	1.808	17.114	0	UA_with_intermediate	practice	ward_and_allport	89	0.0	1.808	to_hand	poldrack-single-stim	s573	False
17.115	0.1	0.835	17.95	0	UA_with_intermediate	practice	ward_and_allport	71	0.0	0.835	to_board	poldrack-single-stim	s573	False
17.952	0.1	1.059	19.011	0	UA_with_intermediate	practice	ward_and_allport	82	0.0	1.059	to_hand	poldrack-single-stim	s573	False
19.012	0.1	1.018	20.03	0	UA_with_intermediate	practice	ward_and_allport	89	0.0	1.018	to_board	poldrack-single-stim	s573	False
20.032	0.1	1.785	21.817	0	UA_with_intermediate	practice	ward_and_allport	71	0.0	1.785	to_hand	poldrack-single-stim	s573	False
21.818	0.1	1.198	23.016	0	UA_with_intermediate	practice	ward_and_allport	89	0.0	1.198	to_board	poldrack-single-stim	s573	False
23.022	1.0	2.5	23.021	0	UA_with_intermediate	practice	ward_and_allport	-1	0.0	n/a	feedback	poldrack-single-stim	s573	False
25.523	4.116	4.116	29.639	1	UA_with_intermediate	practice	ward_and_allport	89	1.0	4.116	to_hand	poldrack-single-stim	s573	False
29.641	0.1	1.192	30.833	0	UA_with_intermediate	practice	ward_and_allport	82	1.0	1.192	to_board	poldrack-single-stim	s573	False
30.835	0.1	1.292	32.127	0	UA_with_intermediate	practice	ward_and_allport	71	1.0	1.292	to_hand	poldrack-single-stim	s573	False
32.127	0.1	1.62	33.747	0	UA_with_intermediate	practice	ward_and_allport	89	1.0	1.62	to_board	poldrack-single-stim	s573	False
33.749	0.1	2.067	35.816	0	UA_with_intermediate	practice	ward_and_allport	82	1.0	2.067	to_hand	poldrack-single-stim	s573	False
35.817	0.1	0.774	36.591	0	UA_with_intermediate	practice	ward_and_allport	89	1.0	0.774	to_board	poldrack-single-stim	s573	False
36.595	1.0	2.1	36.594	0	UA_with_intermediate	practice	ward_and_allport	-1	1.0	n/a	feedback	poldrack-single-stim	s573	False
38.697	3.445	3.445	42.142	1	UA_without_intermediate	practice	ward_and_allport	82	2.0	3.445	to_hand	poldrack-single-stim	s573	False
42.142	0.1	0.998	43.14	0	UA_without_intermediate	practice	ward_and_allport	89	2.0	0.998	to_board	poldrack-single-stim	s573	False
43.143	0.1	1.553	44.696	0	UA_without_intermediate	practice	ward_and_allport	71	2.0	1.553	to_hand	poldrack-single-stim	s573	False
44.697	0.1	1.008	45.705	0	UA_without_intermediate	practice	ward_and_allport	89	2.0	1.008	to_board	poldrack-single-stim	s573	False
45.706	0.1	1.397	47.103	0	UA_without_intermediate	practice	ward_and_allport	71	2.0	1.397	to_hand	poldrack-single-stim	s573	False
47.105	0.1	0.802	47.907	0	UA_without_intermediate	practice	ward_and_allport	89	2.0	0.802	to_board	poldrack-single-stim	s573	False
47.909	1.0	2.2	47.908	0	UA_without_intermediate	practice	ward_and_allport	-1	2.0	n/a	feedback	poldrack-single-stim	s573	False
50.111	3.187	3.187	53.298	1	UA_without_intermediate	practice	ward_and_allport	71	3.0	3.187	to_hand	poldrack-single-stim	s573	False
53.299	0.1	0.994	54.293	0	UA_without_intermediate	practice	ward_and_allport	89	3.0	0.994	to_board	poldrack-single-stim	s573	False
54.295	0.1	1.606	55.901	0	UA_without_intermediate	practice	ward_and_allport	82	3.0	1.606	to_hand	poldrack-single-stim	s573	False
55.902	0.1	1.32	57.222	0	UA_without_intermediate	practice	ward_and_allport	89	3.0	1.32	to_board	poldrack-single-stim	s573	False
57.224	0.1	0.747	57.971	0	UA_without_intermediate	practice	ward_and_allport	71	3.0	0.747	to_hand	poldrack-single-stim	s573	False
57.973	0.1	0.651	58.624	0	UA_without_intermediate	practice	ward_and_allport	89	3.0	0.651	to_board	poldrack-single-stim	s573	False
58.627	1.0	2.0	58.626	0	UA_without_intermediate	practice	ward_and_allport	-1	3.0	n/a	feedback	poldrack-single-stim	s573	False
62.632	4.375	4.375	67.007	1	PA_with_intermediate	test	ward_and_allport	82	0.0	4.375	to_hand	poldrack-single-stim	s573	False
67.009	0.1	2.691	69.7	0	PA_with_intermediate	test	ward_and_allport	89	0.0	2.691	to_board	poldrack-single-stim	s573	False
69.701	0.1	1.808	71.509	0	PA_with_intermediate	test	ward_and_allport	82	0.0	1.808	to_hand	poldrack-single-stim	s573	False
71.51	0.1	1.118	72.628	0	PA_with_intermediate	test	ward_and_allport	71	0.0	1.118	to_board	poldrack-single-stim	s573	False
72.631	0.1	0.687	73.318	0	PA_with_intermediate	test	ward_and_allport	89	0.0	0.687	to_hand	poldrack-single-stim	s573	False
73.318	0.1	2.039	75.357	0	PA_with_intermediate	test	ward_and_allport	82	0.0	2.039	to_board	poldrack-single-stim	s573	False
75.363	1.0	4.176	75.362	0	PA_with_intermediate	test	ward_and_allport	-1	0.0	n/a	feedback	poldrack-single-stim	s573	False
79.542	4.359	4.359	83.901	1	PA_with_intermediate	test	ward_and_allport	82	1.0	4.359	to_hand	poldrack-single-stim	s573	False
83.903	0.1	1.256	85.159	0	PA_with_intermediate	test	ward_and_allport	89	1.0	1.256	to_board	poldrack-single-stim	s573	False
85.163	0.1	1.735	86.898	0	PA_with_intermediate	test	ward_and_allport	82	1.0	1.735	to_hand	poldrack-single-stim	s573	False
86.898	0.1	1.106	88.004	0	PA_with_intermediate	test	ward_and_allport	71	1.0	1.106	to_board	poldrack-single-stim	s573	False
88.006	0.1	0.825	88.831	0	PA_with_intermediate	test	ward_and_allport	89	1.0	0.825	to_hand	poldrack-single-stim	s573	False
88.833	0.1	1.216	90.049	0	PA_with_intermediate	test	ward_and_allport	82	1.0	1.216	to_board	poldrack-single-stim	s573	False
90.052	1.0	3.36	90.051	0	PA_with_intermediate	test	ward_and_allport	-1	1.0	n/a	feedback	poldrack-single-stim	s573	False
93.414	3.851	3.851	97.265	1	PA_with_intermediate	test	ward_and_allport	71	2.0	3.851	to_hand	poldrack-single-stim	s573	False
97.266	0.1	1.138	98.404	0	PA_with_intermediate	test	ward_and_allport	89	2.0	1.138	to_board	poldrack-single-stim	s573	False
98.406	0.1	1.234	99.64	0	PA_with_intermediate	test	ward_and_allport	71	2.0	1.234	to_hand	poldrack-single-stim	s573	False
99.641	0.1	1.912	101.553	0	PA_with_intermediate	test	ward_and_allport	82	2.0	1.912	to_board	poldrack-single-stim	s573	False
101.555	0.1	0.84	102.395	0	PA_with_intermediate	test	ward_and_allport	89	2.0	0.84	to_hand	poldrack-single-stim	s573	False
102.397	0.1	0.754	103.151	0	PA_with_intermediate	test	ward_and_allport	71	2.0	0.754	to_board	poldrack-single-stim	s573	False
103.156	1.0	2.0	103.155	0	PA_with_intermediate	test	ward_and_allport	-1	2.0	n/a	feedback	poldrack-single-stim	s573	False
105.159	3.595	3.595	108.754	1	PA_without_intermediate	test	ward_and_allport	89	3.0	3.595	to_hand	poldrack-single-stim	s573	False
108.755	0.1	0.832	109.587	0	PA_without_intermediate	test	ward_and_allport	82	3.0	0.832	to_board	poldrack-single-stim	s573	False
109.59	0.1	1.837	111.427	0	PA_without_intermediate	test	ward_and_allport	89	3.0	1.837	to_hand	poldrack-single-stim	s573	False
111.428	0.1	1.142	112.57	0	PA_without_intermediate	test	ward_and_allport	82	3.0	1.142	to_board	poldrack-single-stim	s573	False
112.573	0.1	0.99	113.563	0	PA_without_intermediate	test	ward_and_allport	89	3.0	0.99	to_hand	poldrack-single-stim	s573	False
113.564	0.1	0.697	114.261	0	PA_without_intermediate	test	ward_and_allport	71	3.0	0.697	to_board	poldrack-single-stim	s573	False
114.264	1.0	2.408	114.263	0	PA_without_intermediate	test	ward_and_allport	-1	3.0	n/a	feedback	poldrack-single-stim	s573	False
116.674	4.952	4.952	121.626	1	PA_with_intermediate	test	ward_and_allport	82	4.0	4.952	to_hand	poldrack-single-stim	s573	False
121.627	0.1	2.146	123.773	0	PA_with_intermediate	test	ward_and_allport	71	4.0	2.146	to_board	poldrack-single-stim	s573	False
123.775	0.1	1.736	125.511	0	PA_with_intermediate	test	ward_and_allport	82	4.0	1.736	to_hand	poldrack-single-stim	s573	False
125.512	0.1	1.278	126.79	0	PA_with_intermediate	test	ward_and_allport	89	4.0	1.278	to_board	poldrack-single-stim	s573	False
126.793	0.1	0.936	127.729	0	PA_with_intermediate	test	ward_and_allport	71	4.0	0.936	to_hand	poldrack-single-stim	s573	False
127.73	0.1	0.794	128.524	0	PA_with_intermediate	test	ward_and_allport	89	4.0	0.794	to_board	poldrack-single-stim	s573	False
128.528	1.0	2.816	128.527	0	PA_with_intermediate	test	ward_and_allport	-1	4.0	n/a	feedback	poldrack-single-stim	s573	False
131.347	3.246	3.246	134.593	1	PA_without_intermediate	test	ward_and_allport	71	5.0	3.246	to_hand	poldrack-single-stim	s573	False
134.595	0.1	0.969	135.564	0	PA_without_intermediate	test	ward_and_allport	82	5.0	0.969	to_board	poldrack-single-stim	s573	False
135.567	0.1	1.19	136.757	0	PA_without_intermediate	test	ward_and_allport	71	5.0	1.19	to_hand	poldrack-single-stim	s573	False
136.757	0.1	0.833	137.59	0	PA_without_intermediate	test	ward_and_allport	89	5.0	0.833	to_board	poldrack-single-stim	s573	False
137.594	0.1	1.557	139.151	0	PA_without_intermediate	test	ward_and_allport	71	5.0	1.557	to_hand	poldrack-single-stim	s573	False
139.152	0.1	0.874	140.026	0	PA_without_intermediate	test	ward_and_allport	82	5.0	0.874	to_board	poldrack-single-stim	s573	False
140.03	1.0	3.088	140.029	0	PA_without_intermediate	test	ward_and_allport	-1	5.0	n/a	feedback	poldrack-single-stim	s573	False
143.121	3.537	3.537	146.658	1	PA_without_intermediate	test	ward_and_allport	89	6.0	3.537	to_hand	poldrack-single-stim	s573	False
146.659	0.1	0.768	147.427	0	PA_without_intermediate	test	ward_and_allport	71	6.0	0.768	to_board	poldrack-single-stim	s573	False
147.43	0.1	1.349	148.779	0	PA_without_intermediate	test	ward_and_allport	89	6.0	1.349	to_hand	poldrack-single-stim	s573	False
148.779	0.1	0.781	149.56	0	PA_without_intermediate	test	ward_and_allport	82	6.0	0.781	to_board	poldrack-single-stim	s573	False
149.563	0.1	0.907	150.47	0	PA_without_intermediate	test	ward_and_allport	89	6.0	0.907	to_hand	poldrack-single-stim	s573	False
150.471	0.1	0.634	151.105	0	PA_without_intermediate	test	ward_and_allport	71	6.0	0.634	to_board	poldrack-single-stim	s573	False
151.113	1.0	2.136	151.112	0	PA_without_intermediate	test	ward_and_allport	-1	6.0	n/a	feedback	poldrack-single-stim	s573	False
153.252	2.606	2.606	155.858	1	PA_without_intermediate	test	ward_and_allport	71	7.0	2.606	to_hand	poldrack-single-stim	s573	False
155.859	0.1	0.884	156.743	0	PA_without_intermediate	test	ward_and_allport	89	7.0	0.884	to_board	poldrack-single-stim	s573	False
156.746	0.1	1.522	158.268	0	PA_without_intermediate	test	ward_and_allport	71	7.0	1.522	to_hand	poldrack-single-stim	s573	False
158.268	0.1	0.546	158.814	0	PA_without_intermediate	test	ward_and_allport	82	7.0	0.546	to_board	poldrack-single-stim	s573	False
158.817	0.1	1.27	160.087	0	PA_without_intermediate	test	ward_and_allport	71	7.0	1.27	to_hand	poldrack-single-stim	s573	False
160.088	0.1	0.682	160.77	0	PA_without_intermediate	test	ward_and_allport	89	7.0	0.682	to_board	poldrack-single-stim	s573	False
160.774	1.0	7.168	160.773	0	PA_without_intermediate	test	ward_and_allport	-1	7.0	n/a	feedback	poldrack-single-stim	s573	False
167.946	2.524	2.524	170.47	1	PA_without_intermediate	test	ward_and_allport	89	8.0	2.524	to_hand	poldrack-single-stim	s573	False
170.471	0.1	1.091	171.562	0	PA_without_intermediate	test	ward_and_allport	82	8.0	1.091	to_board	poldrack-single-stim	s573	False
171.566	0.1	0.76	172.326	0	PA_without_intermediate	test	ward_and_allport	89	8.0	0.76	to_hand	poldrack-single-stim	s573	False
172.327	0.1	1.104	173.431	0	PA_without_intermediate	test	ward_and_allport	82	8.0	1.104	to_board	poldrack-single-stim	s573	False
173.434	0.1	0.697	174.131	0	PA_without_intermediate	test	ward_and_allport	89	8.0	0.697	to_hand	poldrack-single-stim	s573	False
174.132	0.1	0.61	174.742	0	PA_without_intermediate	test	ward_and_allport	71	8.0	0.61	to_board	poldrack-single-stim	s573	False
174.748	1.0	2.816	174.747	0	PA_without_intermediate	test	ward_and_allport	-1	8.0	n/a	feedback	poldrack-single-stim	s573	False
177.568	3.513	3.513	181.081	1	PA_with_intermediate	test	ward_and_allport	71	9.0	3.513	to_hand	poldrack-single-stim	s573	False
181.082	0.1	1.002	182.084	0	PA_with_intermediate	test	ward_and_allport	89	9.0	1.002	to_board	poldrack-single-stim	s573	False
182.087	0.1	0.805	182.892	0	PA_with_intermediate	test	ward_and_allport	71	9.0	0.805	to_hand	poldrack-single-stim	s573	False
182.893	0.1	1.097	183.99	0	PA_with_intermediate	test	ward_and_allport	82	9.0	1.097	to_board	poldrack-single-stim	s573	False
183.993	0.1	1.245	185.238	0	PA_with_intermediate	test	ward_and_allport	89	9.0	1.245	to_hand	poldrack-single-stim	s573	False
185.239	0.1	0.902	186.141	0	PA_with_intermediate	test	ward_and_allport	71	9.0	0.902	to_board	poldrack-single-stim	s573	False
186.149	1.0	2.952	186.148	0	PA_with_intermediate	test	ward_and_allport	-1	9.0	n/a	feedback	poldrack-single-stim	s573	False
189.105	4.058	4.058	193.163	1	PA_with_intermediate	test	ward_and_allport	71	10.0	4.058	to_hand	poldrack-single-stim	s573	False
193.164	0.1	0.935	194.099	0	PA_with_intermediate	test	ward_and_allport	82	10.0	0.935	to_board	poldrack-single-stim	s573	False
194.104	0.1	1.384	195.488	0	PA_with_intermediate	test	ward_and_allport	71	10.0	1.384	to_hand	poldrack-single-stim	s573	False
195.489	0.1	0.673	196.162	0	PA_with_intermediate	test	ward_and_allport	89	10.0	0.673	to_board	poldrack-single-stim	s573	False
196.167	0.1	1.569	197.736	0	PA_with_intermediate	test	ward_and_allport	82	10.0	1.569	to_hand	poldrack-single-stim	s573	False
197.738	0.1	0.65	198.388	0	PA_with_intermediate	test	ward_and_allport	71	10.0	0.65	to_board	poldrack-single-stim	s573	False
198.395	1.0	2.136	198.394	0	PA_with_intermediate	test	ward_and_allport	-1	10.0	n/a	feedback	poldrack-single-stim	s573	False
200.537	2.397	2.397	202.934	1	PA_without_intermediate	test	ward_and_allport	82	11.0	2.397	to_hand	poldrack-single-stim	s573	False
202.935	0.1	1.129	204.064	0	PA_without_intermediate	test	ward_and_allport	71	11.0	1.129	to_board	poldrack-single-stim	s573	False
204.068	0.1	0.898	204.966	0	PA_without_intermediate	test	ward_and_allport	82	11.0	0.898	to_hand	poldrack-single-stim	s573	False
204.967	0.1	1.114	206.081	0	PA_without_intermediate	test	ward_and_allport	89	11.0	1.114	to_board	poldrack-single-stim	s573	False
206.085	0.1	1.293	207.378	0	PA_without_intermediate	test	ward_and_allport	82	11.0	1.293	to_hand	poldrack-single-stim	s573	False
207.38	0.1	0.614	207.994	0	PA_without_intermediate	test	ward_and_allport	71	11.0	0.614	to_board	poldrack-single-stim	s573	False
208.0	1.0	2.68	207.999	0	PA_without_intermediate	test	ward_and_allport	-1	11.0	n/a	feedback	poldrack-single-stim	s573	False
210.683	2.395	2.395	213.078	1	PA_without_intermediate	test	ward_and_allport	82	12.0	2.395	to_hand	poldrack-single-stim	s573	False
213.08	0.1	1.452	214.532	0	PA_without_intermediate	test	ward_and_allport	89	12.0	1.452	to_board	poldrack-single-stim	s573	False
214.535	0.1	1.685	216.22	0	PA_without_intermediate	test	ward_and_allport	82	12.0	1.685	to_hand	poldrack-single-stim	s573	False
216.221	0.1	1.042	217.263	0	PA_without_intermediate	test	ward_and_allport	89	12.0	1.042	to_board	poldrack-single-stim	s573	False
217.268	0.1	0.868	218.136	0	PA_without_intermediate	test	ward_and_allport	82	12.0	0.868	to_hand	poldrack-single-stim	s573	False
218.136	0.1	0.818	218.954	0	PA_without_intermediate	test	ward_and_allport	71	12.0	0.818	to_board	poldrack-single-stim	s573	False
218.963	1.0	3.088	218.962	0	PA_without_intermediate	test	ward_and_allport	-1	12.0	n/a	feedback	poldrack-single-stim	s573	False
222.054	3.652	3.652	225.706	1	PA_with_intermediate	test	ward_and_allport	89	13.0	3.652	to_hand	poldrack-single-stim	s573	False
225.708	0.1	0.799	226.507	0	PA_with_intermediate	test	ward_and_allport	71	13.0	0.799	to_board	poldrack-single-stim	s573	False
226.511	0.1	0.824	227.335	0	PA_with_intermediate	test	ward_and_allport	89	13.0	0.824	to_hand	poldrack-single-stim	s573	False
227.336	0.1	0.848	228.184	0	PA_with_intermediate	test	ward_and_allport	82	13.0	0.848	to_board	poldrack-single-stim	s573	False
228.188	0.1	1.929	230.117	0	PA_with_intermediate	test	ward_and_allport	71	13.0	1.929	to_hand	poldrack-single-stim	s573	False
230.118	0.1	0.779	230.897	0	PA_with_intermediate	test	ward_and_allport	82	13.0	0.779	to_board	poldrack-single-stim	s573	False
230.902	1.0	2.0	230.901	0	PA_with_intermediate	test	ward_and_allport	-1	13.0	n/a	feedback	poldrack-single-stim	s573	False
232.907	2.132	2.132	235.039	1	PA_without_intermediate	test	ward_and_allport	89	14.0	2.132	to_hand	poldrack-single-stim	s573	False
235.04	0.1	0.862	235.902	0	PA_without_intermediate	test	ward_and_allport	71	14.0	0.862	to_board	poldrack-single-stim	s573	False
235.906	0.1	0.875	236.781	0	PA_without_intermediate	test	ward_and_allport	89	14.0	0.875	to_hand	poldrack-single-stim	s573	False
236.782	0.1	1.814	238.596	0	PA_without_intermediate	test	ward_and_allport	71	14.0	1.814	to_board	poldrack-single-stim	s573	False
238.601	0.1	0.635	239.236	0	PA_without_intermediate	test	ward_and_allport	89	14.0	0.635	to_hand	poldrack-single-stim	s573	False
239.237	0.1	0.754	239.991	0	PA_without_intermediate	test	ward_and_allport	82	14.0	0.754	to_board	poldrack-single-stim	s573	False
239.998	1.0	2.0	239.997	0	PA_without_intermediate	test	ward_and_allport	-1	14.0	n/a	feedback	poldrack-single-stim	s573	False
247.004	1.739	1.739	248.743	1	PA_without_intermediate	test	ward_and_allport	71	15.0	1.739	to_hand	poldrack-single-stim	s573	False
248.745	0.1	0.88	249.625	0	PA_without_intermediate	test	ward_and_allport	89	15.0	0.88	to_board	poldrack-single-stim	s573	False
249.628	0.1	0.579	250.207	0	PA_without_intermediate	test	ward_and_allport	71	15.0	0.579	to_hand	poldrack-single-stim	s573	False
250.208	0.1	1.186	251.394	0	PA_without_intermediate	test	ward_and_allport	89	15.0	1.186	to_board	poldrack-single-stim	s573	False
251.398	0.1	0.756	252.154	0	PA_without_intermediate	test	ward_and_allport	71	15.0	0.756	to_hand	poldrack-single-stim	s573	False
252.155	0.1	0.535	252.69	0	PA_without_intermediate	test	ward_and_allport	82	15.0	0.535	to_board	poldrack-single-stim	s573	False
252.697	1.0	2.0	252.696	0	PA_without_intermediate	test	ward_and_allport	-1	15.0	n/a	feedback	poldrack-single-stim	s573	False
254.702	3.094	3.094	257.796	1	PA_with_intermediate	test	ward_and_allport	82	16.0	3.094	to_hand	poldrack-single-stim	s573	False
257.797	0.1	1.141	258.938	0	PA_with_intermediate	test	ward_and_allport	71	16.0	1.141	to_board	poldrack-single-stim	s573	False
258.943	0.1	0.967	259.91	0	PA_with_intermediate	test	ward_and_allport	82	16.0	0.967	to_hand	poldrack-single-stim	s573	False
259.911	0.1	0.691	260.602	0	PA_with_intermediate	test	ward_and_allport	89	16.0	0.691	to_board	poldrack-single-stim	s573	False
260.607	0.1	1.777	262.384	0	PA_with_intermediate	test	ward_and_allport	71	16.0	1.777	to_hand	poldrack-single-stim	s573	False
262.385	0.1	0.702	263.087	0	PA_with_intermediate	test	ward_and_allport	82	16.0	0.702	to_board	poldrack-single-stim	s573	False
263.092	1.0	2.544	263.091	0	PA_with_intermediate	test	ward_and_allport	-1	16.0	n/a	feedback	poldrack-single-stim	s573	False
265.642	1.585	1.585	267.227	1	PA_without_intermediate	test	ward_and_allport	71	17.0	1.585	to_hand	poldrack-single-stim	s573	False
267.228	0.1	1.165	268.393	0	PA_without_intermediate	test	ward_and_allport	89	17.0	1.165	to_board	poldrack-single-stim	s573	False
268.397	0.1	0.69	269.087	0	PA_without_intermediate	test	ward_and_allport	71	17.0	0.69	to_hand	poldrack-single-stim	s573	False
269.089	0.1	0.653	269.742	0	PA_without_intermediate	test	ward_and_allport	82	17.0	0.653	to_board	poldrack-single-stim	s573	False
269.746	0.1	0.813	270.559	0	PA_without_intermediate	test	ward_and_allport	71	17.0	0.813	to_hand	poldrack-single-stim	s573	False
270.561	0.1	0.686	271.247	0	PA_without_intermediate	test	ward_and_allport	89	17.0	0.686	to_board	poldrack-single-stim	s573	False
271.252	1.0	2.272	271.251	0	PA_without_intermediate	test	ward_and_allport	-1	17.0	n/a	feedback	poldrack-single-stim	s573	False
273.529	1.688	1.688	275.217	1	PA_with_intermediate	test	ward_and_allport	71	18.0	1.688	to_hand	poldrack-single-stim	s573	False
275.219	0.1	1.902	277.121	0	PA_with_intermediate	test	ward_and_allport	82	18.0	1.902	to_board	poldrack-single-stim	s573	False
277.126	0.1	0.773	277.899	0	PA_with_intermediate	test	ward_and_allport	71	18.0	0.773	to_hand	poldrack-single-stim	s573	False
277.899	0.1	0.741	278.64	0	PA_with_intermediate	test	ward_and_allport	89	18.0	0.741	to_board	poldrack-single-stim	s573	False
278.645	0.1	1.015	279.66	0	PA_with_intermediate	test	ward_and_allport	82	18.0	1.015	to_hand	poldrack-single-stim	s573	False
279.661	0.1	1.335	280.996	0	PA_with_intermediate	test	ward_and_allport	89	18.0	1.335	to_board	poldrack-single-stim	s573	False
281.005	1.0	4.04	281.004	0	PA_with_intermediate	test	ward_and_allport	-1	18.0	n/a	feedback	poldrack-single-stim	s573	False
285.049	3.517	3.517	288.566	1	PA_with_intermediate	test	ward_and_allport	89	19.0	3.517	to_hand	poldrack-single-stim	s573	False
288.568	0.1	0.553	289.121	0	PA_with_intermediate	test	ward_and_allport	71	19.0	0.553	to_board	poldrack-single-stim	s573	False
289.126	0.1	1.049	290.175	0	PA_with_intermediate	test	ward_and_allport	89	19.0	1.049	to_hand	poldrack-single-stim	s573	False
290.175	0.1	0.765	290.94	0	PA_with_intermediate	test	ward_and_allport	82	19.0	0.765	to_board	poldrack-single-stim	s573	False
290.946	0.1	1.041	291.987	0	PA_with_intermediate	test	ward_and_allport	71	19.0	1.041	to_hand	poldrack-single-stim	s573	False
291.988	0.1	0.928	292.916	0	PA_with_intermediate	test	ward_and_allport	89	19.0	0.928	to_board	poldrack-single-stim	s573	False
292.922	1.0	2.272	292.921	0	PA_with_intermediate	test	ward_and_allport	-1	19.0	n/a	feedback	poldrack-single-stim	s573	False
295.2	3.46	3.46	298.66	1	PA_with_intermediate	test	ward_and_allport	89	20.0	3.46	to_hand	poldrack-single-stim	s573	False
298.66	0.1	1.217	299.877	0	PA_with_intermediate	test	ward_and_allport	82	20.0	1.217	to_board	poldrack-single-stim	s573	False
299.883	0.1	0.697	300.58	0	PA_with_intermediate	test	ward_and_allport	89	20.0	0.697	to_hand	poldrack-single-stim	s573	False
300.58	0.1	0.492	301.072	0	PA_with_intermediate	test	ward_and_allport	71	20.0	0.492	to_board	poldrack-single-stim	s573	False
301.078	0.1	0.622	301.7	0	PA_with_intermediate	test	ward_and_allport	82	20.0	0.622	to_hand	poldrack-single-stim	s573	False
301.7	0.1	1.191	302.891	0	PA_with_intermediate	test	ward_and_allport	89	20.0	1.191	to_board	poldrack-single-stim	s573	False
302.899	1.0	2.136	302.898	0	PA_with_intermediate	test	ward_and_allport	-1	20.0	n/a	feedback	poldrack-single-stim	s573	False
305.04	3.79	3.79	308.83	1	PA_with_intermediate	test	ward_and_allport	89	21.0	3.79	to_hand	poldrack-single-stim	s573	False
308.83	0.1	1.343	310.173	0	PA_with_intermediate	test	ward_and_allport	82	21.0	1.343	to_board	poldrack-single-stim	s573	False
310.179	0.1	1.064	311.243	0	PA_with_intermediate	test	ward_and_allport	89	21.0	1.064	to_hand	poldrack-single-stim	s573	False
311.244	0.1	0.756	312.0	0	PA_with_intermediate	test	ward_and_allport	71	21.0	0.756	to_board	poldrack-single-stim	s573	False
312.005	0.1	0.517	312.522	0	PA_with_intermediate	test	ward_and_allport	82	21.0	0.517	to_hand	poldrack-single-stim	s573	False
312.523	0.1	0.596	313.119	0	PA_with_intermediate	test	ward_and_allport	71	21.0	0.596	to_board	poldrack-single-stim	s573	False
313.126	1.0	2.0	313.125	0	PA_with_intermediate	test	ward_and_allport	-1	21.0	n/a	feedback	poldrack-single-stim	s573	False
315.13	2.318	2.318	317.448	1	PA_with_intermediate	test	ward_and_allport	89	22.0	2.318	to_hand	poldrack-single-stim	s573	False
317.45	0.1	0.497	317.947	0	PA_with_intermediate	test	ward_and_allport	71	22.0	0.497	to_board	poldrack-single-stim	s573	False
317.952	0.1	0.575	318.527	0	PA_with_intermediate	test	ward_and_allport	89	22.0	0.575	to_hand	poldrack-single-stim	s573	False
318.528	0.1	0.521	319.049	0	PA_with_intermediate	test	ward_and_allport	82	22.0	0.521	to_board	poldrack-single-stim	s573	False
319.055	0.1	0.628	319.683	0	PA_with_intermediate	test	ward_and_allport	71	22.0	0.628	to_hand	poldrack-single-stim	s573	False
319.685	0.1	0.605	320.29	0	PA_with_intermediate	test	ward_and_allport	89	22.0	0.605	to_board	poldrack-single-stim	s573	False
320.299	1.0	2.0	320.298	0	PA_with_intermediate	test	ward_and_allport	-1	22.0	n/a	feedback	poldrack-single-stim	s573	False
322.305	2.303	2.303	324.608	1	PA_without_intermediate	test	ward_and_allport	82	23.0	2.303	to_hand	poldrack-single-stim	s573	False
324.608	0.1	1.003	325.611	0	PA_without_intermediate	test	ward_and_allport	71	23.0	1.003	to_board	poldrack-single-stim	s573	False
325.618	0.1	2.155	327.773	0	PA_without_intermediate	test	ward_and_allport	82	23.0	2.155	to_hand	poldrack-single-stim	s573	False
327.773	0.1	0.612	328.385	0	PA_without_intermediate	test	ward_and_allport	89	23.0	0.612	to_board	poldrack-single-stim	s573	False
328.392	0.1	0.726	329.118	0	PA_without_intermediate	test	ward_and_allport	82	23.0	0.726	to_hand	poldrack-single-stim	s573	False
329.119	0.1	0.519	329.638	0	PA_without_intermediate	test	ward_and_allport	71	23.0	0.519	to_board	poldrack-single-stim	s573	False
329.646	1.0	2.408	329.645	0	PA_without_intermediate	test	ward_and_allport	-1	23.0	n/a	feedback	poldrack-single-stim	s573	False
332.061	2.501	2.501	334.562	1	PA_with_intermediate	test	ward_and_allport	89	24.0	2.501	to_hand	poldrack-single-stim	s573	False
334.563	0.1	0.849	335.412	0	PA_with_intermediate	test	ward_and_allport	82	24.0	0.849	to_board	poldrack-single-stim	s573	False
335.419	0.1	1.164	336.583	0	PA_with_intermediate	test	ward_and_allport	89	24.0	1.164	to_hand	poldrack-single-stim	s573	False
336.583	0.1	0.954	337.537	0	PA_with_intermediate	test	ward_and_allport	71	24.0	0.954	to_board	poldrack-single-stim	s573	False
337.544	0.1	0.688	338.232	0	PA_with_intermediate	test	ward_and_allport	82	24.0	0.688	to_hand	poldrack-single-stim	s573	False
338.233	0.1	0.573	338.806	0	PA_with_intermediate	test	ward_and_allport	89	24.0	0.573	to_board	poldrack-single-stim	s573	False
338.815	1.0	3.768	338.814	0	PA_with_intermediate	test	ward_and_allport	-1	24.0	n/a	feedback	poldrack-single-stim	s573	False
342.59	2.34	2.34	344.93	1	PA_with_intermediate	test	ward_and_allport	71	25.0	2.34	to_hand	poldrack-single-stim	s573	False
344.931	0.1	0.489	345.42	0	PA_with_intermediate	test	ward_and_allport	82	25.0	0.489	to_board	poldrack-single-stim	s573	False
345.427	0.1	0.66	346.087	0	PA_with_intermediate	test	ward_and_allport	71	25.0	0.66	to_hand	poldrack-single-stim	s573	False
346.087	0.1	0.538	346.625	0	PA_with_intermediate	test	ward_and_allport	89	25.0	0.538	to_board	poldrack-single-stim	s573	False
346.632	0.1	0.511	347.143	0	PA_with_intermediate	test	ward_and_allport	82	25.0	0.511	to_hand	poldrack-single-stim	s573	False
347.144	0.1	0.474	347.618	0	PA_with_intermediate	test	ward_and_allport	71	25.0	0.474	to_board	poldrack-single-stim	s573	False
347.626	1.0	2.68	347.625	0	PA_with_intermediate	test	ward_and_allport	-1	25.0	n/a	feedback	poldrack-single-stim	s573	False
350.312	2.87	2.87	353.182	1	PA_without_intermediate	test	ward_and_allport	82	26.0	2.87	to_hand	poldrack-single-stim	s573	False
353.183	0.1	0.784	353.967	0	PA_without_intermediate	test	ward_and_allport	89	26.0	0.784	to_board	poldrack-single-stim	s573	False
353.974	0.1	2.103	356.077	0	PA_without_intermediate	test	ward_and_allport	82	26.0	2.103	to_hand	poldrack-single-stim	s573	False
356.078	0.1	1.053	357.131	0	PA_without_intermediate	test	ward_and_allport	71	26.0	1.053	to_board	poldrack-single-stim	s573	False
357.137	0.1	0.556	357.693	0	PA_without_intermediate	test	ward_and_allport	82	26.0	0.556	to_hand	poldrack-single-stim	s573	False
357.695	0.1	0.553	358.248	0	PA_without_intermediate	test	ward_and_allport	89	26.0	0.553	to_board	poldrack-single-stim	s573	False
358.255	1.0	3.224	358.254	0	PA_without_intermediate	test	ward_and_allport	-1	26.0	n/a	feedback	poldrack-single-stim	s573	False
361.486	1.667	1.667	363.153	1	PA_without_intermediate	test	ward_and_allport	82	27.0	1.667	to_hand	poldrack-single-stim	s573	False
363.154	0.1	0.785	363.939	0	PA_without_intermediate	test	ward_and_allport	89	27.0	0.785	to_board	poldrack-single-stim	s573	False
363.947	0.1	0.842	364.789	0	PA_without_intermediate	test	ward_and_allport	82	27.0	0.842	to_hand	poldrack-single-stim	s573	False
364.79	0.1	1.103	365.893	0	PA_without_intermediate	test	ward_and_allport	89	27.0	1.103	to_board	poldrack-single-stim	s573	False
365.9	0.1	0.825	366.725	0	PA_without_intermediate	test	ward_and_allport	82	27.0	0.825	to_hand	poldrack-single-stim	s573	False
366.725	0.1	0.584	367.309	0	PA_without_intermediate	test	ward_and_allport	71	27.0	0.584	to_board	poldrack-single-stim	s573	False
367.317	1.0	3.36	367.316	0	PA_without_intermediate	test	ward_and_allport	-1	27.0	n/a	feedback	poldrack-single-stim	s573	False
370.684	1.682	1.682	372.366	1	PA_without_intermediate	test	ward_and_allport	89	28.0	1.682	to_hand	poldrack-single-stim	s573	False
372.368	0.1	1.037	373.405	0	PA_without_intermediate	test	ward_and_allport	71	28.0	1.037	to_board	poldrack-single-stim	s573	False
373.412	0.1	0.795	374.207	0	PA_without_intermediate	test	ward_and_allport	89	28.0	0.795	to_hand	poldrack-single-stim	s573	False
374.208	0.1	0.681	374.889	0	PA_without_intermediate	test	ward_and_allport	82	28.0	0.681	to_board	poldrack-single-stim	s573	False
374.897	0.1	0.541	375.438	0	PA_without_intermediate	test	ward_and_allport	89	28.0	0.541	to_hand	poldrack-single-stim	s573	False
375.439	0.1	0.563	376.002	0	PA_without_intermediate	test	ward_and_allport	71	28.0	0.563	to_board	poldrack-single-stim	s573	False
376.01	1.0	2.0	376.009	0	PA_without_intermediate	test	ward_and_allport	-1	28.0	n/a	feedback	poldrack-single-stim	s573	False
378.018	1.925	1.925	379.943	1	PA_without_intermediate	test	ward_and_allport	89	29.0	1.925	to_hand	poldrack-single-stim	s573	False
379.945	0.1	0.776	380.721	0	PA_without_intermediate	test	ward_and_allport	82	29.0	0.776	to_board	poldrack-single-stim	s573	False
380.727	0.1	1.315	382.042	0	PA_without_intermediate	test	ward_and_allport	89	29.0	1.315	to_hand	poldrack-single-stim	s573	False
382.044	0.1	0.482	382.526	0	PA_without_intermediate	test	ward_and_allport	71	29.0	0.482	to_board	poldrack-single-stim	s573	False
382.533	0.1	0.472	383.005	0	PA_without_intermediate	test	ward_and_allport	89	29.0	0.472	to_hand	poldrack-single-stim	s573	False
383.005	0.1	0.522	383.527	0	PA_without_intermediate	test	ward_and_allport	82	29.0	0.522	to_board	poldrack-single-stim	s573	False
383.536	1.0	2.408	383.535	0	PA_without_intermediate	test	ward_and_allport	-1	29.0	n/a	feedback	poldrack-single-stim	s573	False
390.954	1.598	1.598	392.552	1	PA_with_intermediate	test	ward_and_allport	89	30.0	1.598	to_hand	poldrack-single-stim	s573	False
392.553	0.1	1.449	394.002	0	PA_with_intermediate	test	ward_and_allport	71	30.0	1.449	to_board	poldrack-single-stim	s573	False
394.01	0.1	0.785	394.795	0	PA_with_intermediate	test	ward_and_allport	89	30.0	0.785	to_hand	poldrack-single-stim	s573	False
394.796	0.1	0.587	395.383	0	PA_with_intermediate	test	ward_and_allport	82	30.0	0.587	to_board	poldrack-single-stim	s573	False
395.391	0.1	0.676	396.067	0	PA_with_intermediate	test	ward_and_allport	89	30.0	0.676	to_hand	poldrack-single-stim	s573	False
396.067	0.1	2.844	398.911	0	PA_with_intermediate	test	ward_and_allport	89	30.0	2.844	to_board	poldrack-single-stim	s573	False
398.918	0.1	1.459	400.377	0	PA_with_intermediate	test	ward_and_allport	71	30.0	1.459	to_hand	poldrack-single-stim	s573	False
400.379	0.1	0.898	401.277	0	PA_with_intermediate	test	ward_and_allport	82	30.0	0.898	to_board	poldrack-single-stim	s573	False
401.286	1.0	2.136	401.285	0	PA_with_intermediate	test	ward_and_allport	-1	30.0	n/a	feedback	poldrack-single-stim	s573	False
403.43	1.779	1.779	405.209	1	PA_without_intermediate	test	ward_and_allport	71	31.0	1.779	to_hand	poldrack-single-stim	s573	False
405.209	0.1	1.016	406.225	0	PA_without_intermediate	test	ward_and_allport	82	31.0	1.016	to_board	poldrack-single-stim	s573	False
406.234	0.1	1.113	407.347	0	PA_without_intermediate	test	ward_and_allport	71	31.0	1.113	to_hand	poldrack-single-stim	s573	False
407.349	0.1	0.777	408.126	0	PA_without_intermediate	test	ward_and_allport	82	31.0	0.777	to_board	poldrack-single-stim	s573	False
408.135	0.1	1.224	409.359	0	PA_without_intermediate	test	ward_and_allport	71	31.0	1.224	to_hand	poldrack-single-stim	s573	False
409.36	0.1	0.531	409.891	0	PA_without_intermediate	test	ward_and_allport	89	31.0	0.531	to_board	poldrack-single-stim	s573	False
409.905	1.0	5.128	409.904	0	PA_without_intermediate	test	ward_and_allport	-1	31.0	n/a	feedback	poldrack-single-stim	s573	False
415.042	2.726	2.726	417.768	1	PA_without_intermediate	test	ward_and_allport	82	32.0	2.726	to_hand	poldrack-single-stim	s573	False
417.769	0.1	1.002	418.771	0	PA_without_intermediate	test	ward_and_allport	71	32.0	1.002	to_board	poldrack-single-stim	s573	False
418.781	0.1	1.188	419.969	0	PA_without_intermediate	test	ward_and_allport	82	32.0	1.188	to_hand	poldrack-single-stim	s573	False
419.97	0.1	0.684	420.654	0	PA_without_intermediate	test	ward_and_allport	71	32.0	0.684	to_board	poldrack-single-stim	s573	False
420.663	0.1	0.669	421.332	0	PA_without_intermediate	test	ward_and_allport	82	32.0	0.669	to_hand	poldrack-single-stim	s573	False
421.333	0.1	0.564	421.897	0	PA_without_intermediate	test	ward_and_allport	89	32.0	0.564	to_board	poldrack-single-stim	s573	False
421.905	1.0	2.136	421.904	0	PA_without_intermediate	test	ward_and_allport	-1	32.0	n/a	feedback	poldrack-single-stim	s573	False
424.05	1.808	1.808	425.858	1	PA_without_intermediate	test	ward_and_allport	89	33.0	1.808	to_hand	poldrack-single-stim	s573	False
425.859	0.1	0.77	426.629	0	PA_without_intermediate	test	ward_and_allport	82	33.0	0.77	to_board	poldrack-single-stim	s573	False
426.635	0.1	1.19	427.825	0	PA_without_intermediate	test	ward_and_allport	89	33.0	1.19	to_hand	poldrack-single-stim	s573	False
427.825	0.1	0.628	428.453	0	PA_without_intermediate	test	ward_and_allport	71	33.0	0.628	to_board	poldrack-single-stim	s573	False
428.461	0.1	0.644	429.105	0	PA_without_intermediate	test	ward_and_allport	89	33.0	0.644	to_hand	poldrack-single-stim	s573	False
429.106	0.1	0.907	430.013	0	PA_without_intermediate	test	ward_and_allport	82	33.0	0.907	to_board	poldrack-single-stim	s573	False
430.023	1.0	5.264	430.022	0	PA_without_intermediate	test	ward_and_allport	-1	33.0	n/a	feedback	poldrack-single-stim	s573	False
435.297	2.314	2.314	437.611	1	PA_with_intermediate	test	ward_and_allport	82	34.0	2.314	to_hand	poldrack-single-stim	s573	False
437.611	0.1	1.157	438.768	0	PA_with_intermediate	test	ward_and_allport	89	34.0	1.157	to_board	poldrack-single-stim	s573	False
438.777	0.1	1.079	439.856	0	PA_with_intermediate	test	ward_and_allport	82	34.0	1.079	to_hand	poldrack-single-stim	s573	False
439.857	0.1	0.618	440.475	0	PA_with_intermediate	test	ward_and_allport	71	34.0	0.618	to_board	poldrack-single-stim	s573	False
440.483	0.1	0.479	440.962	0	PA_with_intermediate	test	ward_and_allport	89	34.0	0.479	to_hand	poldrack-single-stim	s573	False
440.963	0.1	0.628	441.591	0	PA_with_intermediate	test	ward_and_allport	71	34.0	0.628	to_board	poldrack-single-stim	s573	False
441.602	1.0	4.04	441.601	0	PA_with_intermediate	test	ward_and_allport	-1	34.0	n/a	feedback	poldrack-single-stim	s573	False
445.651	1.576	1.576	447.227	1	PA_with_intermediate	test	ward_and_allport	82	35.0	1.576	to_hand	poldrack-single-stim	s573	False
447.227	0.1	1.067	448.294	0	PA_with_intermediate	test	ward_and_allport	89	35.0	1.067	to_board	poldrack-single-stim	s573	False
448.304	0.1	0.954	449.258	0	PA_with_intermediate	test	ward_and_allport	82	35.0	0.954	to_hand	poldrack-single-stim	s573	False
449.259	0.1	0.61	449.869	0	PA_with_intermediate	test	ward_and_allport	71	35.0	0.61	to_board	poldrack-single-stim	s573	False
449.878	0.1	0.475	450.353	0	PA_with_intermediate	test	ward_and_allport	89	35.0	0.475	to_hand	poldrack-single-stim	s573	False
450.354	0.1	0.48	450.834	0	PA_with_intermediate	test	ward_and_allport	71	35.0	0.48	to_board	poldrack-single-stim	s573	False
450.845	1.0	2.136	450.844	0	PA_with_intermediate	test	ward_and_allport	-1	35.0	n/a	feedback	poldrack-single-stim	s573	False
452.989	2.479	2.479	455.468	1	PA_with_intermediate	test	ward_and_allport	71	36.0	2.479	to_hand	poldrack-single-stim	s573	False
455.47	0.1	1.0	456.47	0	PA_with_intermediate	test	ward_and_allport	89	36.0	1.0	to_board	poldrack-single-stim	s573	False
456.477	0.1	0.85	457.327	0	PA_with_intermediate	test	ward_and_allport	71	36.0	0.85	to_hand	poldrack-single-stim	s573	False
457.329	0.1	0.81	458.139	0	PA_with_intermediate	test	ward_and_allport	82	36.0	0.81	to_board	poldrack-single-stim	s573	False
458.146	0.1	0.508	458.654	0	PA_with_intermediate	test	ward_and_allport	89	36.0	0.508	to_hand	poldrack-single-stim	s573	False
458.655	0.1	0.756	459.411	0	PA_with_intermediate	test	ward_and_allport	82	36.0	0.756	to_board	poldrack-single-stim	s573	False
459.421	1.0	2.408	459.42	0	PA_with_intermediate	test	ward_and_allport	-1	36.0	n/a	feedback	poldrack-single-stim	s573	False
461.839	1.566	1.566	463.405	1	PA_without_intermediate	test	ward_and_allport	71	37.0	1.566	to_hand	poldrack-single-stim	s573	False
463.406	0.1	1.028	464.434	0	PA_without_intermediate	test	ward_and_allport	89	37.0	1.028	to_board	poldrack-single-stim	s573	False
464.443	0.1	0.678	465.121	0	PA_without_intermediate	test	ward_and_allport	71	37.0	0.678	to_hand	poldrack-single-stim	s573	False
465.123	0.1	0.944	466.067	0	PA_without_intermediate	test	ward_and_allport	89	37.0	0.944	to_board	poldrack-single-stim	s573	False
466.075	0.1	0.761	466.836	0	PA_without_intermediate	test	ward_and_allport	71	37.0	0.761	to_hand	poldrack-single-stim	s573	False
466.838	0.1	0.642	467.48	0	PA_without_intermediate	test	ward_and_allport	82	37.0	0.642	to_board	poldrack-single-stim	s573	False
467.489	1.0	2.68	467.488	0	PA_without_intermediate	test	ward_and_allport	-1	37.0	n/a	feedback	poldrack-single-stim	s573	False
470.177	2.032	2.032	472.209	1	PA_with_intermediate	test	ward_and_allport	71	38.0	2.032	to_hand	poldrack-single-stim	s573	False
472.209	0.1	0.923	473.132	0	PA_with_intermediate	test	ward_and_allport	82	38.0	0.923	to_board	poldrack-single-stim	s573	False
473.138	0.1	0.769	473.907	0	PA_with_intermediate	test	ward_and_allport	71	38.0	0.769	to_hand	poldrack-single-stim	s573	False
473.908	0.1	0.693	474.601	0	PA_with_intermediate	test	ward_and_allport	89	38.0	0.693	to_board	poldrack-single-stim	s573	False
474.608	0.1	0.809	475.417	0	PA_with_intermediate	test	ward_and_allport	82	38.0	0.809	to_hand	poldrack-single-stim	s573	False
475.419	0.1	0.56	475.979	0	PA_with_intermediate	test	ward_and_allport	89	38.0	0.56	to_board	poldrack-single-stim	s573	False
475.99	1.0	4.72	475.989	0	PA_with_intermediate	test	ward_and_allport	-1	38.0	n/a	feedback	poldrack-single-stim	s573	False
480.719	2.125	2.125	482.844	1	PA_without_intermediate	test	ward_and_allport	82	39.0	2.125	to_hand	poldrack-single-stim	s573	False
482.845	0.1	0.802	483.647	0	PA_without_intermediate	test	ward_and_allport	89	39.0	0.802	to_board	poldrack-single-stim	s573	False
483.655	0.1	1.6	485.255	0	PA_without_intermediate	test	ward_and_allport	82	39.0	1.6	to_hand	poldrack-single-stim	s573	False
485.256	0.1	0.722	485.978	0	PA_without_intermediate	test	ward_and_allport	71	39.0	0.722	to_board	poldrack-single-stim	s573	False
485.988	0.1	0.586	486.574	0	PA_without_intermediate	test	ward_and_allport	82	39.0	0.586	to_hand	poldrack-single-stim	s573	False
486.575	0.1	0.587	487.162	0	PA_without_intermediate	test	ward_and_allport	89	39.0	0.587	to_board	poldrack-single-stim	s573	False
487.171	1.0	3.224	487.17	0	PA_without_intermediate	test	ward_and_allport	-1	39.0	n/a	feedback	poldrack-single-stim	s573	False
490.404	1.62	1.62	492.024	1	PA_without_intermediate	test	ward_and_allport	71	40.0	1.62	to_hand	poldrack-single-stim	s573	False
492.025	0.1	0.736	492.761	0	PA_without_intermediate	test	ward_and_allport	82	40.0	0.736	to_board	poldrack-single-stim	s573	False
492.771	0.1	0.677	493.448	0	PA_without_intermediate	test	ward_and_allport	71	40.0	0.677	to_hand	poldrack-single-stim	s573	False
493.449	0.1	0.724	494.173	0	PA_without_intermediate	test	ward_and_allport	82	40.0	0.724	to_board	poldrack-single-stim	s573	False
494.182	0.1	0.752	494.934	0	PA_without_intermediate	test	ward_and_allport	71	40.0	0.752	to_hand	poldrack-single-stim	s573	False
494.935	0.1	0.802	495.737	0	PA_without_intermediate	test	ward_and_allport	89	40.0	0.802	to_board	poldrack-single-stim	s573	False
495.75	1.0	2.272	495.749	0	PA_without_intermediate	test	ward_and_allport	-1	40.0	n/a	feedback	poldrack-single-stim	s573	False
498.029	3.095	3.095	501.124	1	PA_with_intermediate	test	ward_and_allport	82	41.0	3.095	to_hand	poldrack-single-stim	s573	False
501.124	0.1	0.592	501.716	0	PA_with_intermediate	test	ward_and_allport	71	41.0	0.592	to_board	poldrack-single-stim	s573	False
501.723	0.1	0.862	502.585	0	PA_with_intermediate	test	ward_and_allport	82	41.0	0.862	to_hand	poldrack-single-stim	s573	False
502.587	0.1	0.593	503.18	0	PA_with_intermediate	test	ward_and_allport	89	41.0	0.593	to_board	poldrack-single-stim	s573	False
503.188	0.1	0.82	504.008	0	PA_with_intermediate	test	ward_and_allport	71	41.0	0.82	to_hand	poldrack-single-stim	s573	False
504.009	0.1	0.699	504.708	0	PA_with_intermediate	test	ward_and_allport	82	41.0	0.699	to_board	poldrack-single-stim	s573	False
504.721	1.0	3.632	504.72	0	PA_with_intermediate	test	ward_and_allport	-1	41.0	n/a	feedback	poldrack-single-stim	s573	False
508.361	1.433	1.433	509.794	1	PA_without_intermediate	test	ward_and_allport	71	42.0	1.433	to_hand	poldrack-single-stim	s573	False
509.795	0.1	0.73	510.525	0	PA_without_intermediate	test	ward_and_allport	82	42.0	0.73	to_board	poldrack-single-stim	s573	False
510.535	0.1	0.627	511.162	0	PA_without_intermediate	test	ward_and_allport	71	42.0	0.627	to_hand	poldrack-single-stim	s573	False
511.163	0.1	0.605	511.768	0	PA_without_intermediate	test	ward_and_allport	89	42.0	0.605	to_board	poldrack-single-stim	s573	False
511.778	0.1	0.512	512.29	0	PA_without_intermediate	test	ward_and_allport	71	42.0	0.512	to_hand	poldrack-single-stim	s573	False
512.291	0.1	0.604	512.895	0	PA_without_intermediate	test	ward_and_allport	82	42.0	0.604	to_board	poldrack-single-stim	s573	False
512.905	1.0	2.408	512.904	0	PA_without_intermediate	test	ward_and_allport	-1	42.0	n/a	feedback	poldrack-single-stim	s573	False
515.321	2.378	2.378	517.699	1	PA_without_intermediate	test	ward_and_allport	89	43.0	2.378	to_hand	poldrack-single-stim	s573	False
517.7	0.1	0.625	518.325	0	PA_without_intermediate	test	ward_and_allport	71	43.0	0.625	to_board	poldrack-single-stim	s573	False
518.332	0.1	0.555	518.887	0	PA_without_intermediate	test	ward_and_allport	89	43.0	0.555	to_hand	poldrack-single-stim	s573	False
518.889	0.1	0.899	519.788	0	PA_without_intermediate	test	ward_and_allport	71	43.0	0.899	to_board	poldrack-single-stim	s573	False
519.797	0.1	0.562	520.359	0	PA_without_intermediate	test	ward_and_allport	89	43.0	0.562	to_hand	poldrack-single-stim	s573	False
520.361	0.1	0.643	521.004	0	PA_without_intermediate	test	ward_and_allport	82	43.0	0.643	to_board	poldrack-single-stim	s573	False
521.015	1.0	2.0	521.014	0	PA_without_intermediate	test	ward_and_allport	-1	43.0	n/a	feedback	poldrack-single-stim	s573	False
523.025	1.79	1.79	524.815	1	PA_with_intermediate	test	ward_and_allport	71	44.0	1.79	to_hand	poldrack-single-stim	s573	False
524.815	0.1	1.177	525.992	0	PA_with_intermediate	test	ward_and_allport	89	44.0	1.177	to_board	poldrack-single-stim	s573	False
526.001	0.1	0.809	526.81	0	PA_with_intermediate	test	ward_and_allport	71	44.0	0.809	to_hand	poldrack-single-stim	s573	False
526.812	0.1	0.692	527.504	0	PA_with_intermediate	test	ward_and_allport	82	44.0	0.692	to_board	poldrack-single-stim	s573	False
527.511	0.1	0.66	528.171	0	PA_with_intermediate	test	ward_and_allport	89	44.0	0.66	to_hand	poldrack-single-stim	s573	False
528.172	0.1	0.618	528.79	0	PA_with_intermediate	test	ward_and_allport	82	44.0	0.618	to_board	poldrack-single-stim	s573	False
528.802	1.0	2.0	528.801	0	PA_with_intermediate	test	ward_and_allport	-1	44.0	n/a	feedback	poldrack-single-stim	s573	False
535.811	1.919	1.919	537.73	1	PA_with_intermediate	test	ward_and_allport	89	45.0	1.919	to_hand	poldrack-single-stim	s573	False
537.731	0.1	0.79	538.521	0	PA_with_intermediate	test	ward_and_allport	82	45.0	0.79	to_board	poldrack-single-stim	s573	False
538.53	0.1	0.91	539.44	0	PA_with_intermediate	test	ward_and_allport	89	45.0	0.91	to_hand	poldrack-single-stim	s573	False
539.441	0.1	0.625	540.066	0	PA_with_intermediate	test	ward_and_allport	71	45.0	0.625	to_board	poldrack-single-stim	s573	False
540.075	0.1	0.489	540.564	0	PA_with_intermediate	test	ward_and_allport	82	45.0	0.489	to_hand	poldrack-single-stim	s573	False
540.566	0.1	0.46	541.026	0	PA_with_intermediate	test	ward_and_allport	71	45.0	0.46	to_board	poldrack-single-stim	s573	False
541.042	1.0	2.0	541.041	0	PA_with_intermediate	test	ward_and_allport	-1	45.0	n/a	feedback	poldrack-single-stim	s573	False
543.054	2.206	2.206	545.26	1	PA_with_intermediate	test	ward_and_allport	82	46.0	2.206	to_hand	poldrack-single-stim	s573	False
545.261	0.1	2.163	547.424	0	PA_with_intermediate	test	ward_and_allport	71	46.0	2.163	to_board	poldrack-single-stim	s573	False
547.435	0.1	1.13	548.565	0	PA_with_intermediate	test	ward_and_allport	82	46.0	1.13	to_hand	poldrack-single-stim	s573	False
548.566	0.1	0.798	549.364	0	PA_with_intermediate	test	ward_and_allport	89	46.0	0.798	to_board	poldrack-single-stim	s573	False
549.372	0.1	0.492	549.864	0	PA_with_intermediate	test	ward_and_allport	71	46.0	0.492	to_hand	poldrack-single-stim	s573	False
549.866	0.1	0.459	550.325	0	PA_with_intermediate	test	ward_and_allport	89	46.0	0.459	to_board	poldrack-single-stim	s573	False
550.336	1.0	2.408	550.335	0	PA_with_intermediate	test	ward_and_allport	-1	46.0	n/a	feedback	poldrack-single-stim	s573	False
552.754	1.731	1.731	554.485	1	PA_without_intermediate	test	ward_and_allport	82	47.0	1.731	to_hand	poldrack-single-stim	s573	False
554.487	0.1	0.813	555.3	0	PA_without_intermediate	test	ward_and_allport	71	47.0	0.813	to_board	poldrack-single-stim	s573	False
555.308	0.1	0.661	555.969	0	PA_without_intermediate	test	ward_and_allport	82	47.0	0.661	to_hand	poldrack-single-stim	s573	False
555.97	0.1	0.741	556.711	0	PA_without_intermediate	test	ward_and_allport	71	47.0	0.741	to_board	poldrack-single-stim	s573	False
556.72	0.1	0.53	557.25	0	PA_without_intermediate	test	ward_and_allport	82	47.0	0.53	to_hand	poldrack-single-stim	s573	False
557.251	0.1	0.565	557.816	0	PA_without_intermediate	test	ward_and_allport	89	47.0	0.565	to_board	poldrack-single-stim	s573	False
557.827	1.0	2.816	557.826	0	PA_without_intermediate	test	ward_and_allport	-1	47.0	n/a	feedback	poldrack-single-stim	s573	False
