onset	duration	block_duration	movement_onset	planning	condition	exp_stage	experiment_exp_id	key_press	problem_id	response_time	trial_id	trial_type	worker_id	junk
3.013	2.974	2.974	5.987	1	UA_with_intermediate	practice	ward_and_allport	71	0.0	2.974	to_hand	poldrack-single-stim	s584	False
5.99	0.1	1.126	7.116	0	UA_with_intermediate	practice	ward_and_allport	82	0.0	1.126	to_board	poldrack-single-stim	s584	False
7.119	0.1	0.728	7.847	0	UA_with_intermediate	practice	ward_and_allport	71	0.0	0.728	to_hand	poldrack-single-stim	s584	False
7.849	0.1	0.654	8.503	0	UA_with_intermediate	practice	ward_and_allport	89	0.0	0.654	to_board	poldrack-single-stim	s584	False
8.505	0.1	0.92	9.425	0	UA_with_intermediate	practice	ward_and_allport	82	0.0	0.92	to_hand	poldrack-single-stim	s584	False
9.427	0.1	0.615	10.042	0	UA_with_intermediate	practice	ward_and_allport	89	0.0	0.615	to_board	poldrack-single-stim	s584	False
10.047	1.0	2.5	10.046	0	UA_with_intermediate	practice	ward_and_allport	-1	0.0	n/a	feedback	poldrack-single-stim	s584	False
12.55	2.369	2.369	14.919	1	UA_with_intermediate	practice	ward_and_allport	71	1.0	2.369	to_hand	poldrack-single-stim	s584	False
14.92	0.1	0.588	15.508	0	UA_with_intermediate	practice	ward_and_allport	82	1.0	0.588	to_board	poldrack-single-stim	s584	False
15.512	0.1	1.92	17.432	0	UA_with_intermediate	practice	ward_and_allport	89	1.0	1.92	to_hand	poldrack-single-stim	s584	False
17.433	0.1	0.809	18.242	0	UA_with_intermediate	practice	ward_and_allport	82	1.0	0.809	to_board	poldrack-single-stim	s584	False
18.244	0.1	0.498	18.742	0	UA_with_intermediate	practice	ward_and_allport	89	1.0	0.498	to_hand	poldrack-single-stim	s584	False
18.743	0.1	0.817	19.56	0	UA_with_intermediate	practice	ward_and_allport	89	1.0	0.817	to_board	poldrack-single-stim	s584	False
19.563	0.1	0.716	20.279	0	UA_with_intermediate	practice	ward_and_allport	89	1.0	0.716	to_hand	poldrack-single-stim	s584	False
20.28	0.1	0.484	20.764	0	UA_with_intermediate	practice	ward_and_allport	71	1.0	0.484	to_board	poldrack-single-stim	s584	False
20.767	0.1	2.007	22.774	0	UA_with_intermediate	practice	ward_and_allport	82	1.0	2.007	to_hand	poldrack-single-stim	s584	False
22.775	0.1	0.545	23.32	0	UA_with_intermediate	practice	ward_and_allport	82	1.0	0.545	to_board	poldrack-single-stim	s584	False
23.323	0.1	0.623	23.946	0	UA_with_intermediate	practice	ward_and_allport	82	1.0	0.623	to_hand	poldrack-single-stim	s584	False
23.948	0.1	0.424	24.372	0	UA_with_intermediate	practice	ward_and_allport	89	1.0	0.424	to_board	poldrack-single-stim	s584	False
24.375	0.1	0.848	25.223	0	UA_with_intermediate	practice	ward_and_allport	82	1.0	0.848	to_hand	poldrack-single-stim	s584	False
25.225	0.1	0.675	25.9	0	UA_with_intermediate	practice	ward_and_allport	71	1.0	0.675	to_board	poldrack-single-stim	s584	False
25.902	0.1	1.511	27.413	0	UA_with_intermediate	practice	ward_and_allport	71	1.0	1.511	to_hand	poldrack-single-stim	s584	False
27.415	0.1	0.432	27.847	0	UA_with_intermediate	practice	ward_and_allport	82	1.0	0.432	to_board	poldrack-single-stim	s584	False
27.849	0.1	0.816	28.665	0	UA_with_intermediate	practice	ward_and_allport	89	1.0	0.816	to_hand	poldrack-single-stim	s584	False
28.665	0.1	0.861	29.526	0	UA_with_intermediate	practice	ward_and_allport	89	1.0	0.861	to_board	poldrack-single-stim	s584	False
29.528	0.1	0.365	29.893	0	UA_with_intermediate	practice	ward_and_allport	89	1.0	0.365	to_hand	poldrack-single-stim	s584	False
29.894	0.1	0.314	30.208	0	UA_with_intermediate	practice	ward_and_allport	82	1.0	0.314	to_board	poldrack-single-stim	s584	False
30.21	0.1	0.678	30.888	0	UA_with_intermediate	practice	ward_and_allport	71	1.0	0.678	to_hand	poldrack-single-stim	s584	False
30.89	0.1	0.508	31.398	0	UA_with_intermediate	practice	ward_and_allport	89	1.0	0.508	to_board	poldrack-single-stim	s584	False
31.4	0.1	2.49	33.89	0	UA_with_intermediate	practice	ward_and_allport	82	1.0	2.49	to_hand	poldrack-single-stim	s584	False
33.892	0.1	0.672	34.564	0	UA_with_intermediate	practice	ward_and_allport	71	1.0	0.672	to_board	poldrack-single-stim	s584	False
34.567	0.1	0.901	35.468	0	UA_with_intermediate	practice	ward_and_allport	82	1.0	0.901	to_hand	poldrack-single-stim	s584	False
35.47	0.1	0.745	36.215	0	UA_with_intermediate	practice	ward_and_allport	89	1.0	0.745	to_board	poldrack-single-stim	s584	False
36.217	0.1	0.476	36.693	0	UA_with_intermediate	practice	ward_and_allport	71	1.0	0.476	to_hand	poldrack-single-stim	s584	False
36.694	0.1	0.379	37.073	0	UA_with_intermediate	practice	ward_and_allport	89	1.0	0.379	to_board	poldrack-single-stim	s584	False
37.078	1.0	2.1	37.077	0	UA_with_intermediate	practice	ward_and_allport	-1	1.0	n/a	feedback	poldrack-single-stim	s584	False
39.181	3.637	3.637	42.818	1	UA_without_intermediate	practice	ward_and_allport	82	2.0	3.637	to_hand	poldrack-single-stim	s584	False
42.819	0.1	0.544	43.363	0	UA_without_intermediate	practice	ward_and_allport	89	2.0	0.544	to_board	poldrack-single-stim	s584	False
43.365	0.1	0.658	44.023	0	UA_without_intermediate	practice	ward_and_allport	71	2.0	0.658	to_hand	poldrack-single-stim	s584	False
44.025	0.1	0.52	44.545	0	UA_without_intermediate	practice	ward_and_allport	89	2.0	0.52	to_board	poldrack-single-stim	s584	False
44.549	0.1	0.637	45.186	0	UA_without_intermediate	practice	ward_and_allport	71	2.0	0.637	to_hand	poldrack-single-stim	s584	False
45.188	0.1	0.454	45.642	0	UA_without_intermediate	practice	ward_and_allport	89	2.0	0.454	to_board	poldrack-single-stim	s584	False
45.646	1.0	2.2	45.645	0	UA_without_intermediate	practice	ward_and_allport	-1	2.0	n/a	feedback	poldrack-single-stim	s584	False
47.85	2.222	2.222	50.072	1	UA_without_intermediate	practice	ward_and_allport	71	3.0	2.222	to_hand	poldrack-single-stim	s584	False
50.074	0.1	0.44	50.514	0	UA_without_intermediate	practice	ward_and_allport	89	3.0	0.44	to_board	poldrack-single-stim	s584	False
50.518	0.1	0.56	51.078	0	UA_without_intermediate	practice	ward_and_allport	71	3.0	0.56	to_hand	poldrack-single-stim	s584	False
51.08	0.1	1.282	52.362	0	UA_without_intermediate	practice	ward_and_allport	82	3.0	1.282	to_board	poldrack-single-stim	s584	False
52.364	0.1	0.627	52.991	0	UA_without_intermediate	practice	ward_and_allport	89	3.0	0.627	to_hand	poldrack-single-stim	s584	False
52.992	0.1	0.491	53.483	0	UA_without_intermediate	practice	ward_and_allport	71	3.0	0.491	to_board	poldrack-single-stim	s584	False
53.486	0.1	0.595	54.081	0	UA_without_intermediate	practice	ward_and_allport	82	3.0	0.595	to_hand	poldrack-single-stim	s584	False
54.082	0.1	0.509	54.591	0	UA_without_intermediate	practice	ward_and_allport	71	3.0	0.509	to_board	poldrack-single-stim	s584	False
54.595	0.1	0.539	55.134	0	UA_without_intermediate	practice	ward_and_allport	82	3.0	0.539	to_hand	poldrack-single-stim	s584	False
55.135	0.1	0.51	55.645	0	UA_without_intermediate	practice	ward_and_allport	71	3.0	0.51	to_board	poldrack-single-stim	s584	False
55.649	0.1	1.168	56.817	0	UA_without_intermediate	practice	ward_and_allport	71	3.0	1.168	to_hand	poldrack-single-stim	s584	False
56.819	0.1	0.444	57.263	0	UA_without_intermediate	practice	ward_and_allport	82	3.0	0.444	to_board	poldrack-single-stim	s584	False
57.267	0.1	0.835	58.102	0	UA_without_intermediate	practice	ward_and_allport	71	3.0	0.835	to_hand	poldrack-single-stim	s584	False
58.104	0.1	0.359	58.463	0	UA_without_intermediate	practice	ward_and_allport	89	3.0	0.359	to_board	poldrack-single-stim	s584	False
58.466	0.1	0.778	59.244	0	UA_without_intermediate	practice	ward_and_allport	82	3.0	0.778	to_hand	poldrack-single-stim	s584	False
59.245	0.1	0.484	59.729	0	UA_without_intermediate	practice	ward_and_allport	71	3.0	0.484	to_board	poldrack-single-stim	s584	False
59.732	0.1	0.49	60.222	0	UA_without_intermediate	practice	ward_and_allport	89	3.0	0.49	to_hand	poldrack-single-stim	s584	False
60.223	0.1	0.726	60.949	0	UA_without_intermediate	practice	ward_and_allport	71	3.0	0.726	to_board	poldrack-single-stim	s584	False
60.952	0.1	1.499	62.451	0	UA_without_intermediate	practice	ward_and_allport	71	3.0	1.499	to_hand	poldrack-single-stim	s584	False
62.453	0.1	0.436	62.889	0	UA_without_intermediate	practice	ward_and_allport	82	3.0	0.436	to_board	poldrack-single-stim	s584	False
62.893	0.1	0.679	63.572	0	UA_without_intermediate	practice	ward_and_allport	71	3.0	0.679	to_hand	poldrack-single-stim	s584	False
63.574	0.1	0.346	63.92	0	UA_without_intermediate	practice	ward_and_allport	82	3.0	0.346	to_board	poldrack-single-stim	s584	False
63.922	0.1	0.886	64.808	0	UA_without_intermediate	practice	ward_and_allport	71	3.0	0.886	to_hand	poldrack-single-stim	s584	False
64.809	0.1	0.495	65.304	0	UA_without_intermediate	practice	ward_and_allport	89	3.0	0.495	to_board	poldrack-single-stim	s584	False
65.308	0.1	1.529	66.837	0	UA_without_intermediate	practice	ward_and_allport	82	3.0	1.529	to_hand	poldrack-single-stim	s584	False
66.837	0.1	0.715	67.552	0	UA_without_intermediate	practice	ward_and_allport	89	3.0	0.715	to_board	poldrack-single-stim	s584	False
67.556	0.1	1.324	68.88	0	UA_without_intermediate	practice	ward_and_allport	82	3.0	1.324	to_hand	poldrack-single-stim	s584	False
68.88	0.1	0.48	69.36	0	UA_without_intermediate	practice	ward_and_allport	71	3.0	0.48	to_board	poldrack-single-stim	s584	False
69.364	0.1	0.655	70.019	0	UA_without_intermediate	practice	ward_and_allport	71	3.0	0.655	to_hand	poldrack-single-stim	s584	False
70.021	0.1	0.825	70.846	0	UA_without_intermediate	practice	ward_and_allport	89	3.0	0.825	to_board	poldrack-single-stim	s584	False
70.851	1.0	2.0	70.85	0	UA_without_intermediate	practice	ward_and_allport	-1	3.0	n/a	feedback	poldrack-single-stim	s584	False
74.859	3.813	3.813	78.672	1	PA_with_intermediate	test	ward_and_allport	89	0.0	3.813	to_hand	poldrack-single-stim	s584	False
78.674	0.1	0.564	79.238	0	PA_with_intermediate	test	ward_and_allport	82	0.0	0.564	to_board	poldrack-single-stim	s584	False
79.243	0.1	2.771	82.014	0	PA_with_intermediate	test	ward_and_allport	89	0.0	2.771	to_hand	poldrack-single-stim	s584	False
82.017	0.1	1.663	83.68	0	PA_with_intermediate	test	ward_and_allport	71	0.0	1.663	to_board	poldrack-single-stim	s584	False
83.684	0.1	2.903	86.587	0	PA_with_intermediate	test	ward_and_allport	82	0.0	2.903	to_hand	poldrack-single-stim	s584	False
86.589	0.1	0.725	87.314	0	PA_with_intermediate	test	ward_and_allport	89	0.0	0.725	to_board	poldrack-single-stim	s584	False
87.32	1.0	2.408	87.319	0	PA_with_intermediate	test	ward_and_allport	-1	0.0	n/a	feedback	poldrack-single-stim	s584	False
89.733	3.378	3.378	93.111	1	PA_without_intermediate	test	ward_and_allport	89	1.0	3.378	to_hand	poldrack-single-stim	s584	False
93.113	0.1	0.804	93.917	0	PA_without_intermediate	test	ward_and_allport	71	1.0	0.804	to_board	poldrack-single-stim	s584	False
93.923	0.1	1.046	94.969	0	PA_without_intermediate	test	ward_and_allport	89	1.0	1.046	to_hand	poldrack-single-stim	s584	False
94.97	0.1	0.765	95.735	0	PA_without_intermediate	test	ward_and_allport	82	1.0	0.765	to_board	poldrack-single-stim	s584	False
95.739	0.1	0.659	96.398	0	PA_without_intermediate	test	ward_and_allport	89	1.0	0.659	to_hand	poldrack-single-stim	s584	False
96.399	0.1	0.514	96.913	0	PA_without_intermediate	test	ward_and_allport	71	1.0	0.514	to_board	poldrack-single-stim	s584	False
96.92	1.0	2.68	96.919	0	PA_without_intermediate	test	ward_and_allport	-1	1.0	n/a	feedback	poldrack-single-stim	s584	False
99.603	3.132	3.132	102.735	1	PA_with_intermediate	test	ward_and_allport	89	2.0	3.132	to_hand	poldrack-single-stim	s584	False
102.737	0.1	0.419	103.156	0	PA_with_intermediate	test	ward_and_allport	71	2.0	0.419	to_board	poldrack-single-stim	s584	False
103.159	0.1	0.829	103.988	0	PA_with_intermediate	test	ward_and_allport	89	2.0	0.829	to_hand	poldrack-single-stim	s584	False
103.99	0.1	1.227	105.217	0	PA_with_intermediate	test	ward_and_allport	82	2.0	1.227	to_board	poldrack-single-stim	s584	False
105.222	0.1	0.944	106.166	0	PA_with_intermediate	test	ward_and_allport	71	2.0	0.944	to_hand	poldrack-single-stim	s584	False
106.167	0.1	0.421	106.588	0	PA_with_intermediate	test	ward_and_allport	89	2.0	0.421	to_board	poldrack-single-stim	s584	False
106.595	1.0	4.72	106.594	0	PA_with_intermediate	test	ward_and_allport	-1	2.0	n/a	feedback	poldrack-single-stim	s584	False
111.32	2.726	2.726	114.046	1	PA_without_intermediate	test	ward_and_allport	89	3.0	2.726	to_hand	poldrack-single-stim	s584	False
114.049	0.1	0.86	114.909	0	PA_without_intermediate	test	ward_and_allport	82	3.0	0.86	to_board	poldrack-single-stim	s584	False
114.914	0.1	1.25	116.164	0	PA_without_intermediate	test	ward_and_allport	89	3.0	1.25	to_hand	poldrack-single-stim	s584	False
116.166	0.1	0.557	116.723	0	PA_without_intermediate	test	ward_and_allport	71	3.0	0.557	to_board	poldrack-single-stim	s584	False
116.728	0.1	0.86	117.588	0	PA_without_intermediate	test	ward_and_allport	89	3.0	0.86	to_hand	poldrack-single-stim	s584	False
117.59	0.1	0.52	118.11	0	PA_without_intermediate	test	ward_and_allport	82	3.0	0.52	to_board	poldrack-single-stim	s584	False
118.122	1.0	3.224	118.121	0	PA_without_intermediate	test	ward_and_allport	-1	3.0	n/a	feedback	poldrack-single-stim	s584	False
121.352	3.493	3.493	124.845	1	PA_without_intermediate	test	ward_and_allport	89	4.0	3.493	to_hand	poldrack-single-stim	s584	False
124.847	0.1	0.64	125.487	0	PA_without_intermediate	test	ward_and_allport	71	4.0	0.64	to_board	poldrack-single-stim	s584	False
125.495	0.1	0.677	126.172	0	PA_without_intermediate	test	ward_and_allport	89	4.0	0.677	to_hand	poldrack-single-stim	s584	False
126.174	0.1	0.833	127.007	0	PA_without_intermediate	test	ward_and_allport	71	4.0	0.833	to_board	poldrack-single-stim	s584	False
127.014	0.1	0.54	127.554	0	PA_without_intermediate	test	ward_and_allport	89	4.0	0.54	to_hand	poldrack-single-stim	s584	False
127.556	0.1	0.499	128.055	0	PA_without_intermediate	test	ward_and_allport	82	4.0	0.499	to_board	poldrack-single-stim	s584	False
128.065	1.0	2.272	128.064	0	PA_without_intermediate	test	ward_and_allport	-1	4.0	n/a	feedback	poldrack-single-stim	s584	False
130.343	6.125	6.125	136.468	1	PA_with_intermediate	test	ward_and_allport	82	5.0	6.125	to_hand	poldrack-single-stim	s584	False
136.469	0.1	0.483	136.952	0	PA_with_intermediate	test	ward_and_allport	89	5.0	0.483	to_board	poldrack-single-stim	s584	False
136.958	0.1	2.403	139.361	0	PA_with_intermediate	test	ward_and_allport	82	5.0	2.403	to_hand	poldrack-single-stim	s584	False
139.361	0.1	0.488	139.849	0	PA_with_intermediate	test	ward_and_allport	71	5.0	0.488	to_board	poldrack-single-stim	s584	False
139.854	0.1	0.595	140.449	0	PA_with_intermediate	test	ward_and_allport	89	5.0	0.595	to_hand	poldrack-single-stim	s584	False
140.451	0.1	0.632	141.083	0	PA_with_intermediate	test	ward_and_allport	71	5.0	0.632	to_board	poldrack-single-stim	s584	False
141.09	1.0	3.632	141.089	0	PA_with_intermediate	test	ward_and_allport	-1	5.0	n/a	feedback	poldrack-single-stim	s584	False
144.726	2.77	2.77	147.496	1	PA_without_intermediate	test	ward_and_allport	71	6.0	2.77	to_hand	poldrack-single-stim	s584	False
147.498	0.1	0.514	148.012	0	PA_without_intermediate	test	ward_and_allport	89	6.0	0.514	to_board	poldrack-single-stim	s584	False
148.018	0.1	1.124	149.142	0	PA_without_intermediate	test	ward_and_allport	71	6.0	1.124	to_hand	poldrack-single-stim	s584	False
149.143	0.1	0.55	149.693	0	PA_without_intermediate	test	ward_and_allport	82	6.0	0.55	to_board	poldrack-single-stim	s584	False
149.698	0.1	0.507	150.205	0	PA_without_intermediate	test	ward_and_allport	71	6.0	0.507	to_hand	poldrack-single-stim	s584	False
150.206	0.1	0.419	150.625	0	PA_without_intermediate	test	ward_and_allport	89	6.0	0.419	to_board	poldrack-single-stim	s584	False
150.633	1.0	2.408	150.632	0	PA_without_intermediate	test	ward_and_allport	-1	6.0	n/a	feedback	poldrack-single-stim	s584	False
153.047	2.233	2.233	155.28	1	PA_without_intermediate	test	ward_and_allport	71	7.0	2.233	to_hand	poldrack-single-stim	s584	False
155.283	0.1	0.71	155.993	0	PA_without_intermediate	test	ward_and_allport	82	7.0	0.71	to_board	poldrack-single-stim	s584	False
155.999	0.1	0.479	156.478	0	PA_without_intermediate	test	ward_and_allport	71	7.0	0.479	to_hand	poldrack-single-stim	s584	False
156.48	0.1	0.457	156.937	0	PA_without_intermediate	test	ward_and_allport	82	7.0	0.457	to_board	poldrack-single-stim	s584	False
156.944	0.1	1.694	158.638	0	PA_without_intermediate	test	ward_and_allport	71	7.0	1.694	to_hand	poldrack-single-stim	s584	False
158.639	0.1	0.462	159.101	0	PA_without_intermediate	test	ward_and_allport	89	7.0	0.462	to_board	poldrack-single-stim	s584	False
159.111	1.0	2.0	159.11	0	PA_without_intermediate	test	ward_and_allport	-1	7.0	n/a	feedback	poldrack-single-stim	s584	False
161.117	3.015	3.015	164.132	1	PA_with_intermediate	test	ward_and_allport	89	8.0	3.015	to_hand	poldrack-single-stim	s584	False
164.133	0.1	2.325	166.458	0	PA_with_intermediate	test	ward_and_allport	71	8.0	2.325	to_board	poldrack-single-stim	s584	False
166.465	0.1	0.549	167.014	0	PA_with_intermediate	test	ward_and_allport	89	8.0	0.549	to_hand	poldrack-single-stim	s584	False
167.015	0.1	0.739	167.754	0	PA_with_intermediate	test	ward_and_allport	82	8.0	0.739	to_board	poldrack-single-stim	s584	False
167.76	0.1	0.496	168.256	0	PA_with_intermediate	test	ward_and_allport	71	8.0	0.496	to_hand	poldrack-single-stim	s584	False
168.257	0.1	0.378	168.635	0	PA_with_intermediate	test	ward_and_allport	82	8.0	0.378	to_board	poldrack-single-stim	s584	False
168.642	1.0	2.0	168.641	0	PA_with_intermediate	test	ward_and_allport	-1	8.0	n/a	feedback	poldrack-single-stim	s584	False
170.649	2.71	2.71	173.359	1	PA_with_intermediate	test	ward_and_allport	89	9.0	2.71	to_hand	poldrack-single-stim	s584	False
173.359	0.1	0.427	173.786	0	PA_with_intermediate	test	ward_and_allport	71	9.0	0.427	to_board	poldrack-single-stim	s584	False
173.791	0.1	0.992	174.783	0	PA_with_intermediate	test	ward_and_allport	89	9.0	0.992	to_hand	poldrack-single-stim	s584	False
174.785	0.1	0.428	175.213	0	PA_with_intermediate	test	ward_and_allport	82	9.0	0.428	to_board	poldrack-single-stim	s584	False
175.219	0.1	0.79	176.009	0	PA_with_intermediate	test	ward_and_allport	71	9.0	0.79	to_hand	poldrack-single-stim	s584	False
176.01	0.1	0.44	176.45	0	PA_with_intermediate	test	ward_and_allport	89	9.0	0.44	to_board	poldrack-single-stim	s584	False
176.459	1.0	2.0	176.458	0	PA_with_intermediate	test	ward_and_allport	-1	9.0	n/a	feedback	poldrack-single-stim	s584	False
178.466	2.771	2.771	181.237	1	PA_with_intermediate	test	ward_and_allport	71	10.0	2.771	to_hand	poldrack-single-stim	s584	False
181.239	0.1	0.456	181.695	0	PA_with_intermediate	test	ward_and_allport	89	10.0	0.456	to_board	poldrack-single-stim	s584	False
181.701	0.1	0.498	182.199	0	PA_with_intermediate	test	ward_and_allport	71	10.0	0.498	to_hand	poldrack-single-stim	s584	False
182.2	0.1	0.544	182.744	0	PA_with_intermediate	test	ward_and_allport	82	10.0	0.544	to_board	poldrack-single-stim	s584	False
182.751	0.1	1.591	184.342	0	PA_with_intermediate	test	ward_and_allport	89	10.0	1.591	to_hand	poldrack-single-stim	s584	False
184.344	0.1	0.658	185.002	0	PA_with_intermediate	test	ward_and_allport	82	10.0	0.658	to_board	poldrack-single-stim	s584	False
185.013	1.0	2.408	185.012	0	PA_with_intermediate	test	ward_and_allport	-1	10.0	n/a	feedback	poldrack-single-stim	s584	False
187.428	3.133	3.133	190.561	1	PA_without_intermediate	test	ward_and_allport	89	11.0	3.133	to_hand	poldrack-single-stim	s584	False
190.563	0.1	0.819	191.382	0	PA_without_intermediate	test	ward_and_allport	82	11.0	0.819	to_board	poldrack-single-stim	s584	False
191.388	0.1	1.394	192.782	0	PA_without_intermediate	test	ward_and_allport	89	11.0	1.394	to_hand	poldrack-single-stim	s584	False
192.783	0.1	0.576	193.359	0	PA_without_intermediate	test	ward_and_allport	82	11.0	0.576	to_board	poldrack-single-stim	s584	False
193.366	0.1	0.498	193.864	0	PA_without_intermediate	test	ward_and_allport	89	11.0	0.498	to_hand	poldrack-single-stim	s584	False
193.865	0.1	0.57	194.435	0	PA_without_intermediate	test	ward_and_allport	71	11.0	0.57	to_board	poldrack-single-stim	s584	False
194.446	1.0	2.816	194.445	0	PA_without_intermediate	test	ward_and_allport	-1	11.0	n/a	feedback	poldrack-single-stim	s584	False
197.27	3.146	3.146	200.416	1	PA_with_intermediate	test	ward_and_allport	82	12.0	3.146	to_hand	poldrack-single-stim	s584	False
200.418	0.1	0.799	201.217	0	PA_with_intermediate	test	ward_and_allport	71	12.0	0.799	to_board	poldrack-single-stim	s584	False
201.222	0.1	1.393	202.615	0	PA_with_intermediate	test	ward_and_allport	82	12.0	1.393	to_hand	poldrack-single-stim	s584	False
202.616	0.1	0.548	203.164	0	PA_with_intermediate	test	ward_and_allport	89	12.0	0.548	to_board	poldrack-single-stim	s584	False
203.171	0.1	0.674	203.845	0	PA_with_intermediate	test	ward_and_allport	71	12.0	0.674	to_hand	poldrack-single-stim	s584	False
203.846	0.1	0.741	204.587	0	PA_with_intermediate	test	ward_and_allport	82	12.0	0.741	to_board	poldrack-single-stim	s584	False
204.595	1.0	4.176	204.594	0	PA_with_intermediate	test	ward_and_allport	-1	12.0	n/a	feedback	poldrack-single-stim	s584	False
208.779	2.613	2.613	211.392	1	PA_with_intermediate	test	ward_and_allport	71	13.0	2.613	to_hand	poldrack-single-stim	s584	False
211.394	0.1	0.536	211.93	0	PA_with_intermediate	test	ward_and_allport	82	13.0	0.536	to_board	poldrack-single-stim	s584	False
211.936	0.1	0.516	212.452	0	PA_with_intermediate	test	ward_and_allport	71	13.0	0.516	to_hand	poldrack-single-stim	s584	False
212.453	0.1	0.521	212.974	0	PA_with_intermediate	test	ward_and_allport	89	13.0	0.521	to_board	poldrack-single-stim	s584	False
212.982	0.1	0.675	213.657	0	PA_with_intermediate	test	ward_and_allport	82	13.0	0.675	to_hand	poldrack-single-stim	s584	False
213.658	0.1	0.553	214.211	0	PA_with_intermediate	test	ward_and_allport	71	13.0	0.553	to_board	poldrack-single-stim	s584	False
214.217	1.0	3.36	214.216	0	PA_with_intermediate	test	ward_and_allport	-1	13.0	n/a	feedback	poldrack-single-stim	s584	False
217.583	2.797	2.797	220.38	1	PA_with_intermediate	test	ward_and_allport	71	14.0	2.797	to_hand	poldrack-single-stim	s584	False
220.382	0.1	0.417	220.799	0	PA_with_intermediate	test	ward_and_allport	89	14.0	0.417	to_board	poldrack-single-stim	s584	False
220.806	0.1	0.963	221.769	0	PA_with_intermediate	test	ward_and_allport	71	14.0	0.963	to_hand	poldrack-single-stim	s584	False
221.771	0.1	0.583	222.354	0	PA_with_intermediate	test	ward_and_allport	82	14.0	0.583	to_board	poldrack-single-stim	s584	False
222.361	0.1	0.891	223.252	0	PA_with_intermediate	test	ward_and_allport	89	14.0	0.891	to_hand	poldrack-single-stim	s584	False
223.254	0.1	0.342	223.596	0	PA_with_intermediate	test	ward_and_allport	71	14.0	0.342	to_board	poldrack-single-stim	s584	False
223.606	1.0	2.0	223.605	0	PA_with_intermediate	test	ward_and_allport	-1	14.0	n/a	feedback	poldrack-single-stim	s584	False
230.619	3.179	3.179	233.798	1	PA_without_intermediate	test	ward_and_allport	82	15.0	3.179	to_hand	poldrack-single-stim	s584	False
233.8	0.1	0.536	234.336	0	PA_without_intermediate	test	ward_and_allport	71	15.0	0.536	to_board	poldrack-single-stim	s584	False
234.346	0.1	1.51	235.856	0	PA_without_intermediate	test	ward_and_allport	82	15.0	1.51	to_hand	poldrack-single-stim	s584	False
235.857	0.1	0.404	236.261	0	PA_without_intermediate	test	ward_and_allport	89	15.0	0.404	to_board	poldrack-single-stim	s584	False
236.269	0.1	0.738	237.007	0	PA_without_intermediate	test	ward_and_allport	82	15.0	0.738	to_hand	poldrack-single-stim	s584	False
237.009	0.1	0.45	237.459	0	PA_without_intermediate	test	ward_and_allport	71	15.0	0.45	to_board	poldrack-single-stim	s584	False
237.468	1.0	2.408	237.467	0	PA_without_intermediate	test	ward_and_allport	-1	15.0	n/a	feedback	poldrack-single-stim	s584	False
239.884	1.42	1.42	241.304	1	PA_with_intermediate	test	ward_and_allport	71	16.0	1.42	to_hand	poldrack-single-stim	s584	False
241.304	0.1	0.42	241.724	0	PA_with_intermediate	test	ward_and_allport	89	16.0	0.42	to_board	poldrack-single-stim	s584	False
241.733	0.1	0.396	242.129	0	PA_with_intermediate	test	ward_and_allport	71	16.0	0.396	to_hand	poldrack-single-stim	s584	False
242.129	0.1	0.416	242.545	0	PA_with_intermediate	test	ward_and_allport	82	16.0	0.416	to_board	poldrack-single-stim	s584	False
242.552	0.1	0.739	243.291	0	PA_with_intermediate	test	ward_and_allport	89	16.0	0.739	to_hand	poldrack-single-stim	s584	False
243.292	0.1	0.315	243.607	0	PA_with_intermediate	test	ward_and_allport	71	16.0	0.315	to_board	poldrack-single-stim	s584	False
243.617	1.0	2.816	243.616	0	PA_with_intermediate	test	ward_and_allport	-1	16.0	n/a	feedback	poldrack-single-stim	s584	False
246.442	2.422	2.422	248.864	1	PA_without_intermediate	test	ward_and_allport	89	17.0	2.422	to_hand	poldrack-single-stim	s584	False
248.865	0.1	0.395	249.26	0	PA_without_intermediate	test	ward_and_allport	71	17.0	0.395	to_board	poldrack-single-stim	s584	False
249.27	0.1	0.501	249.771	0	PA_without_intermediate	test	ward_and_allport	89	17.0	0.501	to_hand	poldrack-single-stim	s584	False
249.772	0.1	0.489	250.261	0	PA_without_intermediate	test	ward_and_allport	82	17.0	0.489	to_board	poldrack-single-stim	s584	False
250.268	0.1	0.438	250.706	0	PA_without_intermediate	test	ward_and_allport	89	17.0	0.438	to_hand	poldrack-single-stim	s584	False
250.708	0.1	0.41	251.118	0	PA_without_intermediate	test	ward_and_allport	71	17.0	0.41	to_board	poldrack-single-stim	s584	False
251.13	1.0	3.088	251.129	0	PA_without_intermediate	test	ward_and_allport	-1	17.0	n/a	feedback	poldrack-single-stim	s584	False
254.226	2.073	2.073	256.299	1	PA_without_intermediate	test	ward_and_allport	71	18.0	2.073	to_hand	poldrack-single-stim	s584	False
256.3	0.1	0.541	256.841	0	PA_without_intermediate	test	ward_and_allport	82	18.0	0.541	to_board	poldrack-single-stim	s584	False
256.848	0.1	0.617	257.465	0	PA_without_intermediate	test	ward_and_allport	71	18.0	0.617	to_hand	poldrack-single-stim	s584	False
257.467	0.1	0.424	257.891	0	PA_without_intermediate	test	ward_and_allport	82	18.0	0.424	to_board	poldrack-single-stim	s584	False
257.9	0.1	1.078	258.978	0	PA_without_intermediate	test	ward_and_allport	71	18.0	1.078	to_hand	poldrack-single-stim	s584	False
258.98	0.1	0.429	259.409	0	PA_without_intermediate	test	ward_and_allport	89	18.0	0.429	to_board	poldrack-single-stim	s584	False
259.42	1.0	2.136	259.419	0	PA_without_intermediate	test	ward_and_allport	-1	18.0	n/a	feedback	poldrack-single-stim	s584	False
261.566	2.652	2.652	264.218	1	PA_without_intermediate	test	ward_and_allport	82	19.0	2.652	to_hand	poldrack-single-stim	s584	False
264.22	0.1	1.066	265.286	0	PA_without_intermediate	test	ward_and_allport	89	19.0	1.066	to_board	poldrack-single-stim	s584	False
265.296	0.1	1.659	266.955	0	PA_without_intermediate	test	ward_and_allport	82	19.0	1.659	to_hand	poldrack-single-stim	s584	False
266.957	0.1	0.711	267.668	0	PA_without_intermediate	test	ward_and_allport	71	19.0	0.711	to_board	poldrack-single-stim	s584	False
267.678	0.1	0.849	268.527	0	PA_without_intermediate	test	ward_and_allport	89	19.0	0.849	to_hand	poldrack-single-stim	s584	False
268.528	0.1	0.95	269.478	0	PA_without_intermediate	test	ward_and_allport	89	19.0	0.95	to_board	poldrack-single-stim	s584	False
269.488	0.1	0.506	269.994	0	PA_without_intermediate	test	ward_and_allport	82	19.0	0.506	to_hand	poldrack-single-stim	s584	False
269.995	0.1	0.534	270.529	0	PA_without_intermediate	test	ward_and_allport	89	19.0	0.534	to_board	poldrack-single-stim	s584	False
270.539	1.0	7.168	270.538	0	PA_without_intermediate	test	ward_and_allport	-1	19.0	n/a	feedback	poldrack-single-stim	s584	False
277.717	3.758	3.758	281.475	1	PA_without_intermediate	test	ward_and_allport	82	20.0	3.758	to_hand	poldrack-single-stim	s584	False
281.475	0.1	0.359	281.834	0	PA_without_intermediate	test	ward_and_allport	71	20.0	0.359	to_board	poldrack-single-stim	s584	False
281.841	0.1	1.425	283.266	0	PA_without_intermediate	test	ward_and_allport	71	20.0	1.425	to_hand	poldrack-single-stim	s584	False
283.268	0.1	0.536	283.804	0	PA_without_intermediate	test	ward_and_allport	71	20.0	0.536	to_board	poldrack-single-stim	s584	False
283.812	0.1	0.751	284.563	0	PA_without_intermediate	test	ward_and_allport	82	20.0	0.751	to_hand	poldrack-single-stim	s584	False
284.563	0.1	0.468	285.031	0	PA_without_intermediate	test	ward_and_allport	89	20.0	0.468	to_board	poldrack-single-stim	s584	False
285.04	0.1	0.958	285.998	0	PA_without_intermediate	test	ward_and_allport	82	20.0	0.958	to_hand	poldrack-single-stim	s584	False
286.0	0.1	1.278	287.278	0	PA_without_intermediate	test	ward_and_allport	71	20.0	1.278	to_board	poldrack-single-stim	s584	False
287.291	1.0	2.816	287.29	0	PA_without_intermediate	test	ward_and_allport	-1	20.0	n/a	feedback	poldrack-single-stim	s584	False
290.117	2.703	2.703	292.82	1	PA_with_intermediate	test	ward_and_allport	71	21.0	2.703	to_hand	poldrack-single-stim	s584	False
292.821	0.1	0.364	293.185	0	PA_with_intermediate	test	ward_and_allport	89	21.0	0.364	to_board	poldrack-single-stim	s584	False
293.195	0.1	0.768	293.963	0	PA_with_intermediate	test	ward_and_allport	71	21.0	0.768	to_hand	poldrack-single-stim	s584	False
293.965	0.1	0.793	294.758	0	PA_with_intermediate	test	ward_and_allport	82	21.0	0.793	to_board	poldrack-single-stim	s584	False
294.768	0.1	0.604	295.372	0	PA_with_intermediate	test	ward_and_allport	89	21.0	0.604	to_hand	poldrack-single-stim	s584	False
295.374	0.1	0.469	295.843	0	PA_with_intermediate	test	ward_and_allport	82	21.0	0.469	to_board	poldrack-single-stim	s584	False
295.855	1.0	2.952	295.854	0	PA_with_intermediate	test	ward_and_allport	-1	21.0	n/a	feedback	poldrack-single-stim	s584	False
298.818	3.039	3.039	301.857	1	PA_with_intermediate	test	ward_and_allport	89	22.0	3.039	to_hand	poldrack-single-stim	s584	False
301.859	0.1	1.074	302.933	0	PA_with_intermediate	test	ward_and_allport	82	22.0	1.074	to_board	poldrack-single-stim	s584	False
302.944	0.1	0.475	303.419	0	PA_with_intermediate	test	ward_and_allport	89	22.0	0.475	to_hand	poldrack-single-stim	s584	False
303.421	0.1	1.008	304.429	0	PA_with_intermediate	test	ward_and_allport	71	22.0	1.008	to_board	poldrack-single-stim	s584	False
304.439	0.1	0.751	305.19	0	PA_with_intermediate	test	ward_and_allport	82	22.0	0.751	to_hand	poldrack-single-stim	s584	False
305.192	0.1	0.826	306.018	0	PA_with_intermediate	test	ward_and_allport	82	22.0	0.826	to_board	poldrack-single-stim	s584	False
306.028	0.1	0.639	306.667	0	PA_with_intermediate	test	ward_and_allport	82	22.0	0.639	to_hand	poldrack-single-stim	s584	False
306.668	0.1	0.314	306.982	0	PA_with_intermediate	test	ward_and_allport	71	22.0	0.314	to_board	poldrack-single-stim	s584	False
306.996	1.0	2.136	306.995	0	PA_with_intermediate	test	ward_and_allport	-1	22.0	n/a	feedback	poldrack-single-stim	s584	False
309.142	2.544	2.544	311.686	1	PA_without_intermediate	test	ward_and_allport	82	23.0	2.544	to_hand	poldrack-single-stim	s584	False
311.686	0.1	1.073	312.759	0	PA_without_intermediate	test	ward_and_allport	89	23.0	1.073	to_board	poldrack-single-stim	s584	False
312.769	0.1	2.047	314.816	0	PA_without_intermediate	test	ward_and_allport	82	23.0	2.047	to_hand	poldrack-single-stim	s584	False
314.818	0.1	0.729	315.547	0	PA_without_intermediate	test	ward_and_allport	89	23.0	0.729	to_board	poldrack-single-stim	s584	False
315.559	0.1	1.211	316.77	0	PA_without_intermediate	test	ward_and_allport	82	23.0	1.211	to_hand	poldrack-single-stim	s584	False
316.771	0.1	0.496	317.267	0	PA_without_intermediate	test	ward_and_allport	71	23.0	0.496	to_board	poldrack-single-stim	s584	False
317.284	1.0	2.68	317.283	0	PA_without_intermediate	test	ward_and_allport	-1	23.0	n/a	feedback	poldrack-single-stim	s584	False
319.974	2.427	2.427	322.401	1	PA_without_intermediate	test	ward_and_allport	71	24.0	2.427	to_hand	poldrack-single-stim	s584	False
322.403	0.1	1.1	323.503	0	PA_without_intermediate	test	ward_and_allport	89	24.0	1.1	to_board	poldrack-single-stim	s584	False
323.513	0.1	0.581	324.094	0	PA_without_intermediate	test	ward_and_allport	71	24.0	0.581	to_hand	poldrack-single-stim	s584	False
324.095	0.1	0.778	324.873	0	PA_without_intermediate	test	ward_and_allport	89	24.0	0.778	to_board	poldrack-single-stim	s584	False
324.885	0.1	1.226	326.111	0	PA_without_intermediate	test	ward_and_allport	71	24.0	1.226	to_hand	poldrack-single-stim	s584	False
326.112	0.1	0.451	326.563	0	PA_without_intermediate	test	ward_and_allport	82	24.0	0.451	to_board	poldrack-single-stim	s584	False
326.578	1.0	3.088	326.577	0	PA_without_intermediate	test	ward_and_allport	-1	24.0	n/a	feedback	poldrack-single-stim	s584	False
329.68	2.78	2.78	332.46	1	PA_with_intermediate	test	ward_and_allport	71	25.0	2.78	to_hand	poldrack-single-stim	s584	False
332.462	0.1	0.615	333.077	0	PA_with_intermediate	test	ward_and_allport	89	25.0	0.615	to_board	poldrack-single-stim	s584	False
333.088	0.1	0.716	333.804	0	PA_with_intermediate	test	ward_and_allport	71	25.0	0.716	to_hand	poldrack-single-stim	s584	False
333.806	0.1	0.477	334.283	0	PA_with_intermediate	test	ward_and_allport	89	25.0	0.477	to_board	poldrack-single-stim	s584	False
334.296	0.1	1.705	336.001	0	PA_with_intermediate	test	ward_and_allport	71	25.0	1.705	to_hand	poldrack-single-stim	s584	False
336.003	0.1	0.691	336.694	0	PA_with_intermediate	test	ward_and_allport	71	25.0	0.691	to_board	poldrack-single-stim	s584	False
336.707	0.1	1.381	338.088	0	PA_with_intermediate	test	ward_and_allport	89	25.0	1.381	to_hand	poldrack-single-stim	s584	False
338.089	0.1	1.446	339.535	0	PA_with_intermediate	test	ward_and_allport	71	25.0	1.446	to_board	poldrack-single-stim	s584	False
339.548	0.1	0.692	340.24	0	PA_with_intermediate	test	ward_and_allport	89	25.0	0.692	to_hand	poldrack-single-stim	s584	False
340.242	0.1	0.711	340.953	0	PA_with_intermediate	test	ward_and_allport	82	25.0	0.711	to_board	poldrack-single-stim	s584	False
340.966	0.1	0.602	341.568	0	PA_with_intermediate	test	ward_and_allport	71	25.0	0.602	to_hand	poldrack-single-stim	s584	False
341.57	0.1	0.478	342.048	0	PA_with_intermediate	test	ward_and_allport	89	25.0	0.478	to_board	poldrack-single-stim	s584	False
342.061	0.1	0.595	342.656	0	PA_with_intermediate	test	ward_and_allport	82	25.0	0.595	to_hand	poldrack-single-stim	s584	False
342.657	0.1	0.551	343.208	0	PA_with_intermediate	test	ward_and_allport	89	25.0	0.551	to_board	poldrack-single-stim	s584	False
343.225	1.0	2.0	343.224	0	PA_with_intermediate	test	ward_and_allport	-1	25.0	n/a	feedback	poldrack-single-stim	s584	False
345.234	2.134	2.134	347.368	1	PA_without_intermediate	test	ward_and_allport	71	26.0	2.134	to_hand	poldrack-single-stim	s584	False
347.369	0.1	0.482	347.851	0	PA_without_intermediate	test	ward_and_allport	89	26.0	0.482	to_board	poldrack-single-stim	s584	False
347.86	0.1	1.489	349.349	0	PA_without_intermediate	test	ward_and_allport	71	26.0	1.489	to_hand	poldrack-single-stim	s584	False
349.35	0.1	1.265	350.615	0	PA_without_intermediate	test	ward_and_allport	82	26.0	1.265	to_board	poldrack-single-stim	s584	False
350.623	0.1	0.631	351.254	0	PA_without_intermediate	test	ward_and_allport	71	26.0	0.631	to_hand	poldrack-single-stim	s584	False
351.255	0.1	0.602	351.857	0	PA_without_intermediate	test	ward_and_allport	89	26.0	0.602	to_board	poldrack-single-stim	s584	False
351.868	1.0	2.0	351.867	0	PA_without_intermediate	test	ward_and_allport	-1	26.0	n/a	feedback	poldrack-single-stim	s584	False
353.879	2.735	2.735	356.614	1	PA_without_intermediate	test	ward_and_allport	89	27.0	2.735	to_hand	poldrack-single-stim	s584	False
356.616	0.1	0.552	357.168	0	PA_without_intermediate	test	ward_and_allport	82	27.0	0.552	to_board	poldrack-single-stim	s584	False
357.18	0.1	2.441	359.621	0	PA_without_intermediate	test	ward_and_allport	89	27.0	2.441	to_hand	poldrack-single-stim	s584	False
359.622	0.1	0.511	360.133	0	PA_without_intermediate	test	ward_and_allport	71	27.0	0.511	to_board	poldrack-single-stim	s584	False
360.149	0.1	1.191	361.34	0	PA_without_intermediate	test	ward_and_allport	89	27.0	1.191	to_hand	poldrack-single-stim	s584	False
361.341	0.1	0.607	361.948	0	PA_without_intermediate	test	ward_and_allport	82	27.0	0.607	to_board	poldrack-single-stim	s584	False
361.962	1.0	2.0	361.961	0	PA_without_intermediate	test	ward_and_allport	-1	27.0	n/a	feedback	poldrack-single-stim	s584	False
363.975	4.818	4.818	368.793	1	PA_with_intermediate	test	ward_and_allport	82	28.0	4.818	to_hand	poldrack-single-stim	s584	False
368.795	0.1	0.629	369.424	0	PA_with_intermediate	test	ward_and_allport	89	28.0	0.629	to_board	poldrack-single-stim	s584	False
369.437	0.1	1.24	370.677	0	PA_with_intermediate	test	ward_and_allport	82	28.0	1.24	to_hand	poldrack-single-stim	s584	False
370.679	0.1	0.509	371.188	0	PA_with_intermediate	test	ward_and_allport	71	28.0	0.509	to_board	poldrack-single-stim	s584	False
371.201	0.1	1.22	372.421	0	PA_with_intermediate	test	ward_and_allport	89	28.0	1.22	to_hand	poldrack-single-stim	s584	False
372.423	0.1	0.378	372.801	0	PA_with_intermediate	test	ward_and_allport	82	28.0	0.378	to_board	poldrack-single-stim	s584	False
372.815	1.0	2.544	372.814	0	PA_with_intermediate	test	ward_and_allport	-1	28.0	n/a	feedback	poldrack-single-stim	s584	False
375.371	3.414	3.414	378.785	1	PA_without_intermediate	test	ward_and_allport	89	29.0	3.414	to_hand	poldrack-single-stim	s584	False
378.787	0.1	0.693	379.48	0	PA_without_intermediate	test	ward_and_allport	82	29.0	0.693	to_board	poldrack-single-stim	s584	False
379.489	0.1	1.014	380.503	0	PA_without_intermediate	test	ward_and_allport	89	29.0	1.014	to_hand	poldrack-single-stim	s584	False
380.504	0.1	0.418	380.922	0	PA_without_intermediate	test	ward_and_allport	82	29.0	0.418	to_board	poldrack-single-stim	s584	False
380.935	0.1	0.904	381.839	0	PA_without_intermediate	test	ward_and_allport	89	29.0	0.904	to_hand	poldrack-single-stim	s584	False
381.841	0.1	0.471	382.312	0	PA_without_intermediate	test	ward_and_allport	71	29.0	0.471	to_board	poldrack-single-stim	s584	False
382.329	1.0	2.272	382.328	0	PA_without_intermediate	test	ward_and_allport	-1	29.0	n/a	feedback	poldrack-single-stim	s584	False
389.616	2.938	2.938	392.554	1	PA_with_intermediate	test	ward_and_allport	82	30.0	2.938	to_hand	poldrack-single-stim	s584	False
392.556	0.1	0.486	393.042	0	PA_with_intermediate	test	ward_and_allport	89	30.0	0.486	to_board	poldrack-single-stim	s584	False
393.052	0.1	1.991	395.043	0	PA_with_intermediate	test	ward_and_allport	82	30.0	1.991	to_hand	poldrack-single-stim	s584	False
395.045	0.1	1.189	396.234	0	PA_with_intermediate	test	ward_and_allport	71	30.0	1.189	to_board	poldrack-single-stim	s584	False
396.25	0.1	0.438	396.688	0	PA_with_intermediate	test	ward_and_allport	89	30.0	0.438	to_hand	poldrack-single-stim	s584	False
396.689	0.1	0.426	397.115	0	PA_with_intermediate	test	ward_and_allport	89	30.0	0.426	to_board	poldrack-single-stim	s584	False
397.127	0.1	0.497	397.624	0	PA_with_intermediate	test	ward_and_allport	89	30.0	0.497	to_hand	poldrack-single-stim	s584	False
397.625	0.1	0.299	397.924	0	PA_with_intermediate	test	ward_and_allport	71	30.0	0.299	to_board	poldrack-single-stim	s584	False
397.937	1.0	4.04	397.936	0	PA_with_intermediate	test	ward_and_allport	-1	30.0	n/a	feedback	poldrack-single-stim	s584	False
401.989	2.79	2.79	404.779	1	PA_with_intermediate	test	ward_and_allport	71	31.0	2.79	to_hand	poldrack-single-stim	s584	False
404.781	0.1	1.852	406.633	0	PA_with_intermediate	test	ward_and_allport	82	31.0	1.852	to_board	poldrack-single-stim	s584	False
406.646	0.1	0.831	407.477	0	PA_with_intermediate	test	ward_and_allport	71	31.0	0.831	to_hand	poldrack-single-stim	s584	False
407.479	0.1	0.66	408.139	0	PA_with_intermediate	test	ward_and_allport	89	31.0	0.66	to_board	poldrack-single-stim	s584	False
408.153	0.1	0.607	408.76	0	PA_with_intermediate	test	ward_and_allport	82	31.0	0.607	to_hand	poldrack-single-stim	s584	False
408.762	0.1	0.496	409.258	0	PA_with_intermediate	test	ward_and_allport	71	31.0	0.496	to_board	poldrack-single-stim	s584	False
409.273	1.0	2.272	409.272	0	PA_with_intermediate	test	ward_and_allport	-1	31.0	n/a	feedback	poldrack-single-stim	s584	False
411.56	4.185	4.185	415.745	1	PA_with_intermediate	test	ward_and_allport	82	32.0	4.185	to_hand	poldrack-single-stim	s584	False
415.746	0.1	0.644	416.39	0	PA_with_intermediate	test	ward_and_allport	71	32.0	0.644	to_board	poldrack-single-stim	s584	False
416.401	0.1	0.841	417.242	0	PA_with_intermediate	test	ward_and_allport	82	32.0	0.841	to_hand	poldrack-single-stim	s584	False
417.243	0.1	0.673	417.916	0	PA_with_intermediate	test	ward_and_allport	89	32.0	0.673	to_board	poldrack-single-stim	s584	False
417.93	0.1	0.942	418.872	0	PA_with_intermediate	test	ward_and_allport	71	32.0	0.942	to_hand	poldrack-single-stim	s584	False
418.874	0.1	0.704	419.578	0	PA_with_intermediate	test	ward_and_allport	82	32.0	0.704	to_board	poldrack-single-stim	s584	False
419.596	1.0	2.136	419.595	0	PA_with_intermediate	test	ward_and_allport	-1	32.0	n/a	feedback	poldrack-single-stim	s584	False
421.746	2.907	2.907	424.653	1	PA_with_intermediate	test	ward_and_allport	71	33.0	2.907	to_hand	poldrack-single-stim	s584	False
424.653	0.1	0.821	425.474	0	PA_with_intermediate	test	ward_and_allport	82	33.0	0.821	to_board	poldrack-single-stim	s584	False
425.487	0.1	0.662	426.149	0	PA_with_intermediate	test	ward_and_allport	71	33.0	0.662	to_hand	poldrack-single-stim	s584	False
426.149	0.1	0.645	426.794	0	PA_with_intermediate	test	ward_and_allport	89	33.0	0.645	to_board	poldrack-single-stim	s584	False
426.807	0.1	0.496	427.303	0	PA_with_intermediate	test	ward_and_allport	82	33.0	0.496	to_hand	poldrack-single-stim	s584	False
427.305	0.1	0.393	427.698	0	PA_with_intermediate	test	ward_and_allport	89	33.0	0.393	to_board	poldrack-single-stim	s584	False
427.71	1.0	2.0	427.709	0	PA_with_intermediate	test	ward_and_allport	-1	33.0	n/a	feedback	poldrack-single-stim	s584	False
429.718	2.677	2.677	432.395	1	PA_with_intermediate	test	ward_and_allport	89	34.0	2.677	to_hand	poldrack-single-stim	s584	False
432.397	0.1	0.603	433.0	0	PA_with_intermediate	test	ward_and_allport	82	34.0	0.603	to_board	poldrack-single-stim	s584	False
433.009	0.1	1.268	434.277	0	PA_with_intermediate	test	ward_and_allport	89	34.0	1.268	to_hand	poldrack-single-stim	s584	False
434.278	0.1	0.406	434.684	0	PA_with_intermediate	test	ward_and_allport	71	34.0	0.406	to_board	poldrack-single-stim	s584	False
434.695	0.1	0.473	435.168	0	PA_with_intermediate	test	ward_and_allport	82	34.0	0.473	to_hand	poldrack-single-stim	s584	False
435.169	0.1	0.474	435.643	0	PA_with_intermediate	test	ward_and_allport	89	34.0	0.474	to_board	poldrack-single-stim	s584	False
435.66	1.0	2.0	435.659	0	PA_with_intermediate	test	ward_and_allport	-1	34.0	n/a	feedback	poldrack-single-stim	s584	False
437.675	2.604	2.604	440.279	1	PA_without_intermediate	test	ward_and_allport	82	35.0	2.604	to_hand	poldrack-single-stim	s584	False
440.281	0.1	0.682	440.963	0	PA_without_intermediate	test	ward_and_allport	89	35.0	0.682	to_board	poldrack-single-stim	s584	False
440.977	0.1	1.195	442.172	0	PA_without_intermediate	test	ward_and_allport	82	35.0	1.195	to_hand	poldrack-single-stim	s584	False
442.174	0.1	0.601	442.775	0	PA_without_intermediate	test	ward_and_allport	71	35.0	0.601	to_board	poldrack-single-stim	s584	False
442.787	0.1	0.664	443.451	0	PA_without_intermediate	test	ward_and_allport	82	35.0	0.664	to_hand	poldrack-single-stim	s584	False
443.453	0.1	0.506	443.959	0	PA_without_intermediate	test	ward_and_allport	89	35.0	0.506	to_board	poldrack-single-stim	s584	False
443.975	1.0	2.408	443.974	0	PA_without_intermediate	test	ward_and_allport	-1	35.0	n/a	feedback	poldrack-single-stim	s584	False
446.394	3.117	3.117	449.511	1	PA_with_intermediate	test	ward_and_allport	82	36.0	3.117	to_hand	poldrack-single-stim	s584	False
449.513	0.1	0.936	450.449	0	PA_with_intermediate	test	ward_and_allport	71	36.0	0.936	to_board	poldrack-single-stim	s584	False
450.461	0.1	3.34	453.801	0	PA_with_intermediate	test	ward_and_allport	82	36.0	3.34	to_hand	poldrack-single-stim	s584	False
453.803	0.1	1.003	454.806	0	PA_with_intermediate	test	ward_and_allport	89	36.0	1.003	to_board	poldrack-single-stim	s584	False
454.821	0.1	1.911	456.732	0	PA_with_intermediate	test	ward_and_allport	71	36.0	1.911	to_hand	poldrack-single-stim	s584	False
456.732	0.1	0.398	457.13	0	PA_with_intermediate	test	ward_and_allport	89	36.0	0.398	to_board	poldrack-single-stim	s584	False
457.149	1.0	3.768	457.148	0	PA_with_intermediate	test	ward_and_allport	-1	36.0	n/a	feedback	poldrack-single-stim	s584	False
460.932	3.068	3.068	464.0	1	PA_with_intermediate	test	ward_and_allport	89	37.0	3.068	to_hand	poldrack-single-stim	s584	False
464.0	0.1	0.417	464.417	0	PA_with_intermediate	test	ward_and_allport	71	37.0	0.417	to_board	poldrack-single-stim	s584	False
464.428	0.1	0.521	464.949	0	PA_with_intermediate	test	ward_and_allport	89	37.0	0.521	to_hand	poldrack-single-stim	s584	False
464.95	0.1	0.445	465.395	0	PA_with_intermediate	test	ward_and_allport	82	37.0	0.445	to_board	poldrack-single-stim	s584	False
465.409	0.1	0.616	466.025	0	PA_with_intermediate	test	ward_and_allport	71	37.0	0.616	to_hand	poldrack-single-stim	s584	False
466.025	0.1	0.369	466.394	0	PA_with_intermediate	test	ward_and_allport	82	37.0	0.369	to_board	poldrack-single-stim	s584	False
466.408	1.0	2.68	466.407	0	PA_with_intermediate	test	ward_and_allport	-1	37.0	n/a	feedback	poldrack-single-stim	s584	False
469.097	2.097	2.097	471.194	1	PA_without_intermediate	test	ward_and_allport	82	38.0	2.097	to_hand	poldrack-single-stim	s584	False
471.195	0.1	0.688	471.883	0	PA_without_intermediate	test	ward_and_allport	71	38.0	0.688	to_board	poldrack-single-stim	s584	False
471.894	0.1	1.118	473.012	0	PA_without_intermediate	test	ward_and_allport	82	38.0	1.118	to_hand	poldrack-single-stim	s584	False
473.014	0.1	0.545	473.559	0	PA_without_intermediate	test	ward_and_allport	71	38.0	0.545	to_board	poldrack-single-stim	s584	False
473.572	0.1	2.38	475.952	0	PA_without_intermediate	test	ward_and_allport	82	38.0	2.38	to_hand	poldrack-single-stim	s584	False
475.955	0.1	0.606	476.561	0	PA_without_intermediate	test	ward_and_allport	89	38.0	0.606	to_board	poldrack-single-stim	s584	False
476.584	1.0	3.224	476.583	0	PA_without_intermediate	test	ward_and_allport	-1	38.0	n/a	feedback	poldrack-single-stim	s584	False
479.823	3.151	3.151	482.974	1	PA_without_intermediate	test	ward_and_allport	71	39.0	3.151	to_hand	poldrack-single-stim	s584	False
482.976	0.1	0.453	483.429	0	PA_without_intermediate	test	ward_and_allport	82	39.0	0.453	to_board	poldrack-single-stim	s584	False
483.447	0.1	0.889	484.336	0	PA_without_intermediate	test	ward_and_allport	71	39.0	0.889	to_hand	poldrack-single-stim	s584	False
484.339	0.1	0.672	485.011	0	PA_without_intermediate	test	ward_and_allport	89	39.0	0.672	to_board	poldrack-single-stim	s584	False
485.026	0.1	0.679	485.705	0	PA_without_intermediate	test	ward_and_allport	71	39.0	0.679	to_hand	poldrack-single-stim	s584	False
485.706	0.1	0.559	486.265	0	PA_without_intermediate	test	ward_and_allport	82	39.0	0.559	to_board	poldrack-single-stim	s584	False
486.277	1.0	3.36	486.276	0	PA_without_intermediate	test	ward_and_allport	-1	39.0	n/a	feedback	poldrack-single-stim	s584	False
489.647	2.007	2.007	491.654	1	PA_without_intermediate	test	ward_and_allport	71	40.0	2.007	to_hand	poldrack-single-stim	s584	False
491.654	0.1	0.445	492.099	0	PA_without_intermediate	test	ward_and_allport	82	40.0	0.445	to_board	poldrack-single-stim	s584	False
492.11	0.1	2.192	494.302	0	PA_without_intermediate	test	ward_and_allport	71	40.0	2.192	to_hand	poldrack-single-stim	s584	False
494.303	0.1	0.296	494.599	0	PA_without_intermediate	test	ward_and_allport	89	40.0	0.296	to_board	poldrack-single-stim	s584	False
494.614	0.1	0.409	495.023	0	PA_without_intermediate	test	ward_and_allport	71	40.0	0.409	to_hand	poldrack-single-stim	s584	False
495.024	0.1	0.509	495.533	0	PA_without_intermediate	test	ward_and_allport	82	40.0	0.509	to_board	poldrack-single-stim	s584	False
495.553	1.0	2.0	495.552	0	PA_without_intermediate	test	ward_and_allport	-1	40.0	n/a	feedback	poldrack-single-stim	s584	False
497.566	2.188	2.188	499.754	1	PA_without_intermediate	test	ward_and_allport	71	41.0	2.188	to_hand	poldrack-single-stim	s584	False
499.756	0.1	0.579	500.335	0	PA_without_intermediate	test	ward_and_allport	89	41.0	0.579	to_board	poldrack-single-stim	s584	False
500.344	0.1	0.7	501.044	0	PA_without_intermediate	test	ward_and_allport	71	41.0	0.7	to_hand	poldrack-single-stim	s584	False
501.044	0.1	0.438	501.482	0	PA_without_intermediate	test	ward_and_allport	89	41.0	0.438	to_board	poldrack-single-stim	s584	False
501.494	0.1	1.118	502.612	0	PA_without_intermediate	test	ward_and_allport	71	41.0	1.118	to_hand	poldrack-single-stim	s584	False
502.613	0.1	0.495	503.108	0	PA_without_intermediate	test	ward_and_allport	82	41.0	0.495	to_board	poldrack-single-stim	s584	False
503.124	1.0	2.408	503.123	0	PA_without_intermediate	test	ward_and_allport	-1	41.0	n/a	feedback	poldrack-single-stim	s584	False
505.542	3.719	3.719	509.261	1	PA_with_intermediate	test	ward_and_allport	82	42.0	3.719	to_hand	poldrack-single-stim	s584	False
509.264	0.1	0.812	510.076	0	PA_with_intermediate	test	ward_and_allport	71	42.0	0.812	to_board	poldrack-single-stim	s584	False
510.088	0.1	1.337	511.425	0	PA_with_intermediate	test	ward_and_allport	71	42.0	1.337	to_hand	poldrack-single-stim	s584	False
511.427	0.1	0.961	512.388	0	PA_with_intermediate	test	ward_and_allport	89	42.0	0.961	to_board	poldrack-single-stim	s584	False
512.402	0.1	0.706	513.108	0	PA_with_intermediate	test	ward_and_allport	82	42.0	0.706	to_hand	poldrack-single-stim	s584	False
513.11	0.1	0.534	513.644	0	PA_with_intermediate	test	ward_and_allport	71	42.0	0.534	to_board	poldrack-single-stim	s584	False
513.661	0.1	0.422	514.083	0	PA_with_intermediate	test	ward_and_allport	89	42.0	0.422	to_hand	poldrack-single-stim	s584	False
514.084	0.1	0.884	514.968	0	PA_with_intermediate	test	ward_and_allport	82	42.0	0.884	to_board	poldrack-single-stim	s584	False
514.985	1.0	2.136	514.984	0	PA_with_intermediate	test	ward_and_allport	-1	42.0	n/a	feedback	poldrack-single-stim	s584	False
517.136	2.477	2.477	519.613	1	PA_without_intermediate	test	ward_and_allport	82	43.0	2.477	to_hand	poldrack-single-stim	s584	False
519.614	0.1	0.484	520.098	0	PA_without_intermediate	test	ward_and_allport	89	43.0	0.484	to_board	poldrack-single-stim	s584	False
520.111	0.1	0.971	521.082	0	PA_without_intermediate	test	ward_and_allport	89	43.0	0.971	to_hand	poldrack-single-stim	s584	False
521.083	0.1	0.439	521.522	0	PA_without_intermediate	test	ward_and_allport	71	43.0	0.439	to_board	poldrack-single-stim	s584	False
521.537	0.1	1.925	523.462	0	PA_without_intermediate	test	ward_and_allport	82	43.0	1.925	to_hand	poldrack-single-stim	s584	False
523.464	0.1	1.095	524.559	0	PA_without_intermediate	test	ward_and_allport	71	43.0	1.095	to_board	poldrack-single-stim	s584	False
524.572	0.1	1.275	525.847	0	PA_without_intermediate	test	ward_and_allport	82	43.0	1.275	to_hand	poldrack-single-stim	s584	False
525.848	0.1	0.405	526.253	0	PA_without_intermediate	test	ward_and_allport	89	43.0	0.405	to_board	poldrack-single-stim	s584	False
526.27	1.0	5.128	526.269	0	PA_without_intermediate	test	ward_and_allport	-1	43.0	n/a	feedback	poldrack-single-stim	s584	False
531.412	2.464	2.464	533.876	1	PA_without_intermediate	test	ward_and_allport	89	44.0	2.464	to_hand	poldrack-single-stim	s584	False
533.878	0.1	0.426	534.304	0	PA_without_intermediate	test	ward_and_allport	71	44.0	0.426	to_board	poldrack-single-stim	s584	False
534.32	0.1	1.571	535.891	0	PA_without_intermediate	test	ward_and_allport	89	44.0	1.571	to_hand	poldrack-single-stim	s584	False
535.892	0.1	0.409	536.301	0	PA_without_intermediate	test	ward_and_allport	71	44.0	0.409	to_board	poldrack-single-stim	s584	False
536.316	0.1	0.963	537.279	0	PA_without_intermediate	test	ward_and_allport	89	44.0	0.963	to_hand	poldrack-single-stim	s584	False
537.281	0.1	0.381	537.662	0	PA_without_intermediate	test	ward_and_allport	82	44.0	0.381	to_board	poldrack-single-stim	s584	False
537.679	1.0	2.136	537.678	0	PA_without_intermediate	test	ward_and_allport	-1	44.0	n/a	feedback	poldrack-single-stim	s584	False
544.831	2.243	2.243	547.074	1	PA_without_intermediate	test	ward_and_allport	82	45.0	2.243	to_hand	poldrack-single-stim	s584	False
547.076	0.1	1.079	548.155	0	PA_without_intermediate	test	ward_and_allport	89	45.0	1.079	to_board	poldrack-single-stim	s584	False
548.174	0.1	0.845	549.019	0	PA_without_intermediate	test	ward_and_allport	82	45.0	0.845	to_hand	poldrack-single-stim	s584	False
549.021	0.1	0.468	549.489	0	PA_without_intermediate	test	ward_and_allport	89	45.0	0.468	to_board	poldrack-single-stim	s584	False
549.507	0.1	0.906	550.413	0	PA_without_intermediate	test	ward_and_allport	82	45.0	0.906	to_hand	poldrack-single-stim	s584	False
550.415	0.1	0.422	550.837	0	PA_without_intermediate	test	ward_and_allport	71	45.0	0.422	to_board	poldrack-single-stim	s584	False
550.856	1.0	5.264	550.855	0	PA_without_intermediate	test	ward_and_allport	-1	45.0	n/a	feedback	poldrack-single-stim	s584	False
556.135	3.557	3.557	559.692	1	PA_with_intermediate	test	ward_and_allport	82	46.0	3.557	to_hand	poldrack-single-stim	s584	False
559.693	0.1	0.532	560.225	0	PA_with_intermediate	test	ward_and_allport	71	46.0	0.532	to_board	poldrack-single-stim	s584	False
560.243	0.1	2.084	562.327	0	PA_with_intermediate	test	ward_and_allport	82	46.0	2.084	to_hand	poldrack-single-stim	s584	False
562.329	0.1	0.784	563.113	0	PA_with_intermediate	test	ward_and_allport	89	46.0	0.784	to_board	poldrack-single-stim	s584	False
563.13	0.1	0.745	563.875	0	PA_with_intermediate	test	ward_and_allport	71	46.0	0.745	to_hand	poldrack-single-stim	s584	False
563.877	0.1	0.556	564.433	0	PA_with_intermediate	test	ward_and_allport	89	46.0	0.556	to_board	poldrack-single-stim	s584	False
564.451	1.0	4.04	564.45	0	PA_with_intermediate	test	ward_and_allport	-1	46.0	n/a	feedback	poldrack-single-stim	s584	False
