onset	duration	block_duration	movement_onset	planning	condition	exp_stage	experiment_exp_id	key_press	problem_id	response_time	trial_id	trial_type	worker_id	junk
3.009	7.368	7.368	10.377	1	UA_with_intermediate	practice	ward_and_allport	71	0.0	7.368	to_hand	poldrack-single-stim	s519	False
10.379	0.1	0.704	11.083	0	UA_with_intermediate	practice	ward_and_allport	82	0.0	0.704	to_board	poldrack-single-stim	s519	False
11.085	0.1	2.268	13.353	0	UA_with_intermediate	practice	ward_and_allport	71	0.0	2.268	to_hand	poldrack-single-stim	s519	False
13.355	0.1	0.63	13.985	0	UA_with_intermediate	practice	ward_and_allport	89	0.0	0.63	to_board	poldrack-single-stim	s519	False
13.987	0.1	1.693	15.68	0	UA_with_intermediate	practice	ward_and_allport	82	0.0	1.693	to_hand	poldrack-single-stim	s519	False
15.681	0.1	0.904	16.585	0	UA_with_intermediate	practice	ward_and_allport	89	0.0	0.904	to_board	poldrack-single-stim	s519	False
16.589	1.0	2.5	16.588	0	UA_with_intermediate	practice	ward_and_allport	-1	0.0	n/a	feedback	poldrack-single-stim	s519	False
19.091	3.924	3.924	23.015	1	UA_with_intermediate	practice	ward_and_allport	89	1.0	3.924	to_hand	poldrack-single-stim	s519	False
23.016	0.1	1.255	24.271	0	UA_with_intermediate	practice	ward_and_allport	82	1.0	1.255	to_board	poldrack-single-stim	s519	False
24.273	0.1	1.186	25.459	0	UA_with_intermediate	practice	ward_and_allport	71	1.0	1.186	to_hand	poldrack-single-stim	s519	False
25.459	0.1	0.3	25.759	0	UA_with_intermediate	practice	ward_and_allport	89	1.0	0.3	to_board	poldrack-single-stim	s519	False
25.761	0.1	0.501	26.262	0	UA_with_intermediate	practice	ward_and_allport	82	1.0	0.501	to_hand	poldrack-single-stim	s519	False
26.263	0.1	0.369	26.632	0	UA_with_intermediate	practice	ward_and_allport	89	1.0	0.369	to_board	poldrack-single-stim	s519	False
26.635	1.0	2.1	26.634	0	UA_with_intermediate	practice	ward_and_allport	-1	1.0	n/a	feedback	poldrack-single-stim	s519	False
28.736	4.41	4.41	33.146	1	UA_without_intermediate	practice	ward_and_allport	71	2.0	4.41	to_hand	poldrack-single-stim	s519	False
33.148	0.1	0.518	33.666	0	UA_without_intermediate	practice	ward_and_allport	89	2.0	0.518	to_board	poldrack-single-stim	s519	False
33.668	0.1	10.371	44.039	0	UA_without_intermediate	practice	ward_and_allport	82	2.0	10.371	to_hand	poldrack-single-stim	s519	False
44.04	0.1	1.949	45.989	0	UA_without_intermediate	practice	ward_and_allport	71	2.0	1.949	to_board	poldrack-single-stim	s519	False
45.991	0.1	0.315	46.306	0	UA_without_intermediate	practice	ward_and_allport	89	2.0	0.315	to_hand	poldrack-single-stim	s519	False
46.307	0.1	1.053	47.36	0	UA_without_intermediate	practice	ward_and_allport	82	2.0	1.053	to_board	poldrack-single-stim	s519	False
47.362	0.1	2.842	50.204	0	UA_without_intermediate	practice	ward_and_allport	71	2.0	2.842	to_hand	poldrack-single-stim	s519	False
50.206	0.1	0.407	50.613	0	UA_without_intermediate	practice	ward_and_allport	89	2.0	0.407	to_board	poldrack-single-stim	s519	False
50.614	0.1	0.962	51.576	0	UA_without_intermediate	practice	ward_and_allport	71	2.0	0.962	to_hand	poldrack-single-stim	s519	False
51.577	0.1	0.326	51.903	0	UA_without_intermediate	practice	ward_and_allport	89	2.0	0.326	to_board	poldrack-single-stim	s519	False
51.906	0.1	0.466	52.372	0	UA_without_intermediate	practice	ward_and_allport	82	2.0	0.466	to_hand	poldrack-single-stim	s519	False
52.373	0.1	0.353	52.726	0	UA_without_intermediate	practice	ward_and_allport	89	2.0	0.353	to_board	poldrack-single-stim	s519	False
52.727	0.1	3.277	56.004	0	UA_without_intermediate	practice	ward_and_allport	89	2.0	3.277	to_hand	poldrack-single-stim	s519	False
56.005	0.1	0.463	56.468	0	UA_without_intermediate	practice	ward_and_allport	82	2.0	0.463	to_board	poldrack-single-stim	s519	False
56.47	0.1	1.393	57.863	0	UA_without_intermediate	practice	ward_and_allport	89	2.0	1.393	to_hand	poldrack-single-stim	s519	False
57.864	0.1	0.877	58.741	0	UA_without_intermediate	practice	ward_and_allport	71	2.0	0.877	to_board	poldrack-single-stim	s519	False
58.743	0.1	1.987	60.73	0	UA_without_intermediate	practice	ward_and_allport	82	2.0	1.987	to_hand	poldrack-single-stim	s519	False
60.732	0.1	1.058	61.79	0	UA_without_intermediate	practice	ward_and_allport	89	2.0	1.058	to_board	poldrack-single-stim	s519	False
61.791	0.1	0.909	62.7	0	UA_without_intermediate	practice	ward_and_allport	71	2.0	0.909	to_hand	poldrack-single-stim	s519	False
62.701	0.1	0.291	62.992	0	UA_without_intermediate	practice	ward_and_allport	89	2.0	0.291	to_board	poldrack-single-stim	s519	False
62.996	1.0	2.2	62.995	0	UA_without_intermediate	practice	ward_and_allport	-1	2.0	n/a	feedback	poldrack-single-stim	s519	False
65.199	3.098	3.098	68.297	1	UA_without_intermediate	practice	ward_and_allport	71	3.0	3.098	to_hand	poldrack-single-stim	s519	False
68.297	0.1	0.485	68.782	0	UA_without_intermediate	practice	ward_and_allport	89	3.0	0.485	to_board	poldrack-single-stim	s519	False
68.785	0.1	3.489	72.274	0	UA_without_intermediate	practice	ward_and_allport	82	3.0	3.489	to_hand	poldrack-single-stim	s519	False
72.275	0.1	0.48	72.755	0	UA_without_intermediate	practice	ward_and_allport	89	3.0	0.48	to_board	poldrack-single-stim	s519	False
72.757	0.1	0.48	73.237	0	UA_without_intermediate	practice	ward_and_allport	71	3.0	0.48	to_hand	poldrack-single-stim	s519	False
73.238	0.1	0.288	73.526	0	UA_without_intermediate	practice	ward_and_allport	89	3.0	0.288	to_board	poldrack-single-stim	s519	False
73.529	1.0	2.0	73.528	0	UA_without_intermediate	practice	ward_and_allport	-1	3.0	n/a	feedback	poldrack-single-stim	s519	False
77.536	4.001	4.001	81.537	1	PA_with_intermediate	test	ward_and_allport	71	0.0	4.001	to_hand	poldrack-single-stim	s519	False
81.539	0.1	7.122	88.661	0	PA_with_intermediate	test	ward_and_allport	89	0.0	7.122	to_board	poldrack-single-stim	s519	False
88.663	0.1	0.692	89.355	0	PA_with_intermediate	test	ward_and_allport	71	0.0	0.692	to_hand	poldrack-single-stim	s519	False
89.356	0.1	0.554	89.91	0	PA_with_intermediate	test	ward_and_allport	82	0.0	0.554	to_board	poldrack-single-stim	s519	False
89.913	0.1	3.527	93.44	0	PA_with_intermediate	test	ward_and_allport	89	0.0	3.527	to_hand	poldrack-single-stim	s519	False
93.442	0.1	0.957	94.399	0	PA_with_intermediate	test	ward_and_allport	71	0.0	0.957	to_board	poldrack-single-stim	s519	False
94.403	1.0	4.176	94.402	0	PA_with_intermediate	test	ward_and_allport	-1	0.0	n/a	feedback	poldrack-single-stim	s519	False
98.582	3.532	3.532	102.114	1	PA_with_intermediate	test	ward_and_allport	71	1.0	3.532	to_hand	poldrack-single-stim	s519	False
102.115	0.1	0.567	102.682	0	PA_with_intermediate	test	ward_and_allport	82	1.0	0.567	to_board	poldrack-single-stim	s519	False
102.684	0.1	3.354	106.038	0	PA_with_intermediate	test	ward_and_allport	71	1.0	3.354	to_hand	poldrack-single-stim	s519	False
106.039	0.1	3.258	109.297	0	PA_with_intermediate	test	ward_and_allport	89	1.0	3.258	to_board	poldrack-single-stim	s519	False
109.299	0.1	2.403	111.702	0	PA_with_intermediate	test	ward_and_allport	82	1.0	2.403	to_hand	poldrack-single-stim	s519	False
111.703	0.1	1.712	113.415	0	PA_with_intermediate	test	ward_and_allport	71	1.0	1.712	to_board	poldrack-single-stim	s519	False
113.417	0.1	0.442	113.859	0	PA_with_intermediate	test	ward_and_allport	89	1.0	0.442	to_hand	poldrack-single-stim	s519	False
113.861	0.1	1.703	115.564	0	PA_with_intermediate	test	ward_and_allport	82	1.0	1.703	to_board	poldrack-single-stim	s519	False
115.566	0.1	2.25	117.816	0	PA_with_intermediate	test	ward_and_allport	71	1.0	2.25	to_hand	poldrack-single-stim	s519	False
117.817	0.1	0.821	118.638	0	PA_with_intermediate	test	ward_and_allport	82	1.0	0.821	to_board	poldrack-single-stim	s519	False
118.642	1.0	3.36	118.641	0	PA_with_intermediate	test	ward_and_allport	-1	1.0	n/a	feedback	poldrack-single-stim	s519	False
122.006	5.275	5.275	127.281	1	PA_with_intermediate	test	ward_and_allport	89	2.0	5.275	to_hand	poldrack-single-stim	s519	False
127.282	0.1	2.344	129.626	0	PA_with_intermediate	test	ward_and_allport	71	2.0	2.344	to_board	poldrack-single-stim	s519	False
129.629	0.1	0.495	130.124	0	PA_with_intermediate	test	ward_and_allport	89	2.0	0.495	to_hand	poldrack-single-stim	s519	False
130.125	0.1	0.439	130.564	0	PA_with_intermediate	test	ward_and_allport	82	2.0	0.439	to_board	poldrack-single-stim	s519	False
130.567	0.1	0.506	131.073	0	PA_with_intermediate	test	ward_and_allport	71	2.0	0.506	to_hand	poldrack-single-stim	s519	False
131.075	0.1	0.333	131.408	0	PA_with_intermediate	test	ward_and_allport	89	2.0	0.333	to_board	poldrack-single-stim	s519	False
131.411	1.0	2.0	131.41	0	PA_with_intermediate	test	ward_and_allport	-1	2.0	n/a	feedback	poldrack-single-stim	s519	False
133.415	4.963	4.963	138.378	1	PA_without_intermediate	test	ward_and_allport	71	3.0	4.963	to_hand	poldrack-single-stim	s519	False
138.38	0.1	0.297	138.677	0	PA_without_intermediate	test	ward_and_allport	89	3.0	0.297	to_board	poldrack-single-stim	s519	False
138.68	0.1	1.429	140.109	0	PA_without_intermediate	test	ward_and_allport	71	3.0	1.429	to_hand	poldrack-single-stim	s519	False
140.109	0.1	0.354	140.463	0	PA_without_intermediate	test	ward_and_allport	82	3.0	0.354	to_board	poldrack-single-stim	s519	False
140.466	0.1	0.74	141.206	0	PA_without_intermediate	test	ward_and_allport	71	3.0	0.74	to_hand	poldrack-single-stim	s519	False
141.208	0.1	0.254	141.462	0	PA_without_intermediate	test	ward_and_allport	89	3.0	0.254	to_board	poldrack-single-stim	s519	False
141.465	1.0	2.408	141.464	0	PA_without_intermediate	test	ward_and_allport	-1	3.0	n/a	feedback	poldrack-single-stim	s519	False
143.876	2.847	2.847	146.723	1	PA_with_intermediate	test	ward_and_allport	89	4.0	2.847	to_hand	poldrack-single-stim	s519	False
146.725	0.1	1.26	147.985	0	PA_with_intermediate	test	ward_and_allport	82	4.0	1.26	to_board	poldrack-single-stim	s519	False
147.987	0.1	1.313	149.3	0	PA_with_intermediate	test	ward_and_allport	89	4.0	1.313	to_hand	poldrack-single-stim	s519	False
149.302	0.1	0.46	149.762	0	PA_with_intermediate	test	ward_and_allport	71	4.0	0.46	to_board	poldrack-single-stim	s519	False
149.764	0.1	0.575	150.339	0	PA_with_intermediate	test	ward_and_allport	82	4.0	0.575	to_hand	poldrack-single-stim	s519	False
150.34	0.1	0.469	150.809	0	PA_with_intermediate	test	ward_and_allport	71	4.0	0.469	to_board	poldrack-single-stim	s519	False
150.814	1.0	2.816	150.813	0	PA_with_intermediate	test	ward_and_allport	-1	4.0	n/a	feedback	poldrack-single-stim	s519	False
153.633	2.927	2.927	156.56	1	PA_without_intermediate	test	ward_and_allport	71	5.0	2.927	to_hand	poldrack-single-stim	s519	False
156.56	0.1	0.238	156.798	0	PA_without_intermediate	test	ward_and_allport	89	5.0	0.238	to_board	poldrack-single-stim	s519	False
156.802	0.1	1.341	158.143	0	PA_without_intermediate	test	ward_and_allport	71	5.0	1.341	to_hand	poldrack-single-stim	s519	False
158.144	0.1	0.302	158.446	0	PA_without_intermediate	test	ward_and_allport	89	5.0	0.302	to_board	poldrack-single-stim	s519	False
158.449	0.1	0.516	158.965	0	PA_without_intermediate	test	ward_and_allport	71	5.0	0.516	to_hand	poldrack-single-stim	s519	False
158.967	0.1	0.266	159.233	0	PA_without_intermediate	test	ward_and_allport	82	5.0	0.266	to_board	poldrack-single-stim	s519	False
159.239	1.0	3.088	159.238	0	PA_without_intermediate	test	ward_and_allport	-1	5.0	n/a	feedback	poldrack-single-stim	s519	False
162.33	2.014	2.014	164.344	1	PA_without_intermediate	test	ward_and_allport	89	6.0	2.014	to_hand	poldrack-single-stim	s519	False
164.344	0.1	0.681	165.025	0	PA_without_intermediate	test	ward_and_allport	82	6.0	0.681	to_board	poldrack-single-stim	s519	False
165.029	0.1	1.001	166.03	0	PA_without_intermediate	test	ward_and_allport	89	6.0	1.001	to_hand	poldrack-single-stim	s519	False
166.031	0.1	0.941	166.972	0	PA_without_intermediate	test	ward_and_allport	82	6.0	0.941	to_board	poldrack-single-stim	s519	False
166.976	0.1	1.968	168.944	0	PA_without_intermediate	test	ward_and_allport	89	6.0	1.968	to_hand	poldrack-single-stim	s519	False
168.944	0.1	0.343	169.287	0	PA_without_intermediate	test	ward_and_allport	71	6.0	0.343	to_board	poldrack-single-stim	s519	False
169.291	1.0	2.136	169.29	0	PA_without_intermediate	test	ward_and_allport	-1	6.0	n/a	feedback	poldrack-single-stim	s519	False
171.43	1.825	1.825	173.255	1	PA_without_intermediate	test	ward_and_allport	89	7.0	1.825	to_hand	poldrack-single-stim	s519	False
173.256	0.1	0.703	173.959	0	PA_without_intermediate	test	ward_and_allport	82	7.0	0.703	to_board	poldrack-single-stim	s519	False
173.962	0.1	0.978	174.94	0	PA_without_intermediate	test	ward_and_allport	89	7.0	0.978	to_hand	poldrack-single-stim	s519	False
174.941	0.1	0.349	175.29	0	PA_without_intermediate	test	ward_and_allport	71	7.0	0.349	to_board	poldrack-single-stim	s519	False
175.294	0.1	0.416	175.71	0	PA_without_intermediate	test	ward_and_allport	89	7.0	0.416	to_hand	poldrack-single-stim	s519	False
175.711	0.1	0.6	176.311	0	PA_without_intermediate	test	ward_and_allport	82	7.0	0.6	to_board	poldrack-single-stim	s519	False
176.318	1.0	7.168	176.317	0	PA_without_intermediate	test	ward_and_allport	-1	7.0	n/a	feedback	poldrack-single-stim	s519	False
183.49	2.635	2.635	186.125	1	PA_without_intermediate	test	ward_and_allport	89	8.0	2.635	to_hand	poldrack-single-stim	s519	False
186.125	0.1	0.452	186.577	0	PA_without_intermediate	test	ward_and_allport	82	8.0	0.452	to_board	poldrack-single-stim	s519	False
186.582	0.1	0.461	187.043	0	PA_without_intermediate	test	ward_and_allport	89	8.0	0.461	to_hand	poldrack-single-stim	s519	False
187.044	0.1	0.582	187.626	0	PA_without_intermediate	test	ward_and_allport	82	8.0	0.582	to_board	poldrack-single-stim	s519	False
187.63	0.1	0.374	188.004	0	PA_without_intermediate	test	ward_and_allport	89	8.0	0.374	to_hand	poldrack-single-stim	s519	False
188.008	0.1	0.28	188.288	0	PA_without_intermediate	test	ward_and_allport	71	8.0	0.28	to_board	poldrack-single-stim	s519	False
188.293	1.0	2.816	188.292	0	PA_without_intermediate	test	ward_and_allport	-1	8.0	n/a	feedback	poldrack-single-stim	s519	False
191.114	4.119	4.119	195.233	1	PA_with_intermediate	test	ward_and_allport	71	9.0	4.119	to_hand	poldrack-single-stim	s519	False
195.234	0.1	0.561	195.795	0	PA_with_intermediate	test	ward_and_allport	89	9.0	0.561	to_board	poldrack-single-stim	s519	False
195.799	0.1	0.733	196.532	0	PA_with_intermediate	test	ward_and_allport	71	9.0	0.733	to_hand	poldrack-single-stim	s519	False
196.533	0.1	0.83	197.363	0	PA_with_intermediate	test	ward_and_allport	82	9.0	0.83	to_board	poldrack-single-stim	s519	False
197.367	0.1	0.641	198.008	0	PA_with_intermediate	test	ward_and_allport	89	9.0	0.641	to_hand	poldrack-single-stim	s519	False
198.009	0.1	0.449	198.458	0	PA_with_intermediate	test	ward_and_allport	82	9.0	0.449	to_board	poldrack-single-stim	s519	False
198.464	1.0	2.952	198.463	0	PA_with_intermediate	test	ward_and_allport	-1	9.0	n/a	feedback	poldrack-single-stim	s519	False
201.42	2.209	2.209	203.629	1	PA_with_intermediate	test	ward_and_allport	71	10.0	2.209	to_hand	poldrack-single-stim	s519	False
203.63	0.1	0.331	203.961	0	PA_with_intermediate	test	ward_and_allport	82	10.0	0.331	to_board	poldrack-single-stim	s519	False
203.965	0.1	1.003	204.968	0	PA_with_intermediate	test	ward_and_allport	71	10.0	1.003	to_hand	poldrack-single-stim	s519	False
204.969	0.1	0.34	205.309	0	PA_with_intermediate	test	ward_and_allport	89	10.0	0.34	to_board	poldrack-single-stim	s519	False
205.313	0.1	0.635	205.948	0	PA_with_intermediate	test	ward_and_allport	82	10.0	0.635	to_hand	poldrack-single-stim	s519	False
205.95	0.1	0.716	206.666	0	PA_with_intermediate	test	ward_and_allport	89	10.0	0.716	to_board	poldrack-single-stim	s519	False
206.671	1.0	2.136	206.67	0	PA_with_intermediate	test	ward_and_allport	-1	10.0	n/a	feedback	poldrack-single-stim	s519	False
208.81	4.051	4.051	212.861	1	PA_without_intermediate	test	ward_and_allport	71	11.0	4.051	to_hand	poldrack-single-stim	s519	False
212.863	0.1	2.262	215.125	0	PA_without_intermediate	test	ward_and_allport	89	11.0	2.262	to_board	poldrack-single-stim	s519	False
215.129	0.1	0.792	215.921	0	PA_without_intermediate	test	ward_and_allport	71	11.0	0.792	to_hand	poldrack-single-stim	s519	False
215.923	0.1	0.283	216.206	0	PA_without_intermediate	test	ward_and_allport	82	11.0	0.283	to_board	poldrack-single-stim	s519	False
216.21	0.1	0.524	216.734	0	PA_without_intermediate	test	ward_and_allport	71	11.0	0.524	to_hand	poldrack-single-stim	s519	False
216.736	0.1	0.406	217.142	0	PA_without_intermediate	test	ward_and_allport	89	11.0	0.406	to_board	poldrack-single-stim	s519	False
217.147	1.0	2.68	217.146	0	PA_without_intermediate	test	ward_and_allport	-1	11.0	n/a	feedback	poldrack-single-stim	s519	False
219.832	3.126	3.126	222.958	1	PA_without_intermediate	test	ward_and_allport	82	12.0	3.126	to_hand	poldrack-single-stim	s519	False
222.959	0.1	0.35	223.309	0	PA_without_intermediate	test	ward_and_allport	71	12.0	0.35	to_board	poldrack-single-stim	s519	False
223.313	0.1	3.287	226.6	0	PA_without_intermediate	test	ward_and_allport	82	12.0	3.287	to_hand	poldrack-single-stim	s519	False
226.601	0.1	0.351	226.952	0	PA_without_intermediate	test	ward_and_allport	71	12.0	0.351	to_board	poldrack-single-stim	s519	False
226.956	0.1	0.829	227.785	0	PA_without_intermediate	test	ward_and_allport	82	12.0	0.829	to_hand	poldrack-single-stim	s519	False
227.786	0.1	0.579	228.365	0	PA_without_intermediate	test	ward_and_allport	89	12.0	0.579	to_board	poldrack-single-stim	s519	False
228.371	1.0	3.088	228.37	0	PA_without_intermediate	test	ward_and_allport	-1	12.0	n/a	feedback	poldrack-single-stim	s519	False
231.464	2.599	2.599	234.063	1	PA_with_intermediate	test	ward_and_allport	82	13.0	2.599	to_hand	poldrack-single-stim	s519	False
234.063	0.1	0.418	234.481	0	PA_with_intermediate	test	ward_and_allport	71	13.0	0.418	to_board	poldrack-single-stim	s519	False
234.485	0.1	1.179	235.664	0	PA_with_intermediate	test	ward_and_allport	82	13.0	1.179	to_hand	poldrack-single-stim	s519	False
235.665	0.1	0.543	236.208	0	PA_with_intermediate	test	ward_and_allport	89	13.0	0.543	to_board	poldrack-single-stim	s519	False
236.212	0.1	1.682	237.894	0	PA_with_intermediate	test	ward_and_allport	71	13.0	1.682	to_hand	poldrack-single-stim	s519	False
237.895	0.1	0.342	238.237	0	PA_with_intermediate	test	ward_and_allport	89	13.0	0.342	to_board	poldrack-single-stim	s519	False
238.243	1.0	2.0	238.242	0	PA_with_intermediate	test	ward_and_allport	-1	13.0	n/a	feedback	poldrack-single-stim	s519	False
240.248	2.524	2.524	242.772	1	PA_without_intermediate	test	ward_and_allport	82	14.0	2.524	to_hand	poldrack-single-stim	s519	False
242.772	0.1	0.568	243.34	0	PA_without_intermediate	test	ward_and_allport	89	14.0	0.568	to_board	poldrack-single-stim	s519	False
243.344	0.1	1.1	244.444	0	PA_without_intermediate	test	ward_and_allport	82	14.0	1.1	to_hand	poldrack-single-stim	s519	False
244.446	0.1	0.391	244.837	0	PA_without_intermediate	test	ward_and_allport	71	14.0	0.391	to_board	poldrack-single-stim	s519	False
244.842	0.1	0.517	245.359	0	PA_without_intermediate	test	ward_and_allport	82	14.0	0.517	to_hand	poldrack-single-stim	s519	False
245.361	0.1	0.425	245.786	0	PA_without_intermediate	test	ward_and_allport	89	14.0	0.425	to_board	poldrack-single-stim	s519	False
245.792	1.0	2.0	245.791	0	PA_without_intermediate	test	ward_and_allport	-1	14.0	n/a	feedback	poldrack-single-stim	s519	False
252.799	2.313	2.313	255.112	1	PA_without_intermediate	test	ward_and_allport	82	15.0	2.313	to_hand	poldrack-single-stim	s519	False
255.113	0.1	0.447	255.56	0	PA_without_intermediate	test	ward_and_allport	89	15.0	0.447	to_board	poldrack-single-stim	s519	False
255.565	0.1	0.843	256.408	0	PA_without_intermediate	test	ward_and_allport	82	15.0	0.843	to_hand	poldrack-single-stim	s519	False
256.409	0.1	0.829	257.238	0	PA_without_intermediate	test	ward_and_allport	71	15.0	0.829	to_board	poldrack-single-stim	s519	False
257.242	0.1	0.603	257.845	0	PA_without_intermediate	test	ward_and_allport	82	15.0	0.603	to_hand	poldrack-single-stim	s519	False
257.847	0.1	0.325	258.172	0	PA_without_intermediate	test	ward_and_allport	89	15.0	0.325	to_board	poldrack-single-stim	s519	False
258.178	1.0	2.0	258.177	0	PA_without_intermediate	test	ward_and_allport	-1	15.0	n/a	feedback	poldrack-single-stim	s519	False
260.183	4.886	4.886	265.069	1	PA_with_intermediate	test	ward_and_allport	71	16.0	4.886	to_hand	poldrack-single-stim	s519	False
265.07	0.1	0.805	265.875	0	PA_with_intermediate	test	ward_and_allport	89	16.0	0.805	to_board	poldrack-single-stim	s519	False
265.879	0.1	0.97	266.849	0	PA_with_intermediate	test	ward_and_allport	71	16.0	0.97	to_hand	poldrack-single-stim	s519	False
266.85	0.1	0.27	267.12	0	PA_with_intermediate	test	ward_and_allport	82	16.0	0.27	to_board	poldrack-single-stim	s519	False
267.125	0.1	1.053	268.178	0	PA_with_intermediate	test	ward_and_allport	89	16.0	1.053	to_hand	poldrack-single-stim	s519	False
268.179	0.1	0.302	268.481	0	PA_with_intermediate	test	ward_and_allport	71	16.0	0.302	to_board	poldrack-single-stim	s519	False
268.486	1.0	2.544	268.485	0	PA_with_intermediate	test	ward_and_allport	-1	16.0	n/a	feedback	poldrack-single-stim	s519	False
271.035	1.691	1.691	272.726	1	PA_without_intermediate	test	ward_and_allport	71	17.0	1.691	to_hand	poldrack-single-stim	s519	False
272.728	0.1	0.487	273.215	0	PA_without_intermediate	test	ward_and_allport	82	17.0	0.487	to_board	poldrack-single-stim	s519	False
273.22	0.1	0.803	274.023	0	PA_without_intermediate	test	ward_and_allport	71	17.0	0.803	to_hand	poldrack-single-stim	s519	False
274.023	0.1	0.335	274.358	0	PA_without_intermediate	test	ward_and_allport	89	17.0	0.335	to_board	poldrack-single-stim	s519	False
274.363	0.1	0.621	274.984	0	PA_without_intermediate	test	ward_and_allport	71	17.0	0.621	to_hand	poldrack-single-stim	s519	False
274.985	0.1	0.424	275.409	0	PA_without_intermediate	test	ward_and_allport	82	17.0	0.424	to_board	poldrack-single-stim	s519	False
275.415	1.0	2.272	275.414	0	PA_without_intermediate	test	ward_and_allport	-1	17.0	n/a	feedback	poldrack-single-stim	s519	False
277.693	3.137	3.137	280.83	1	PA_with_intermediate	test	ward_and_allport	89	18.0	3.137	to_hand	poldrack-single-stim	s519	False
280.83	0.1	0.382	281.212	0	PA_with_intermediate	test	ward_and_allport	71	18.0	0.382	to_board	poldrack-single-stim	s519	False
281.218	0.1	1.232	282.45	0	PA_with_intermediate	test	ward_and_allport	89	18.0	1.232	to_hand	poldrack-single-stim	s519	False
282.451	0.1	0.48	282.931	0	PA_with_intermediate	test	ward_and_allport	82	18.0	0.48	to_board	poldrack-single-stim	s519	False
282.936	0.1	2.192	285.128	0	PA_with_intermediate	test	ward_and_allport	71	18.0	2.192	to_hand	poldrack-single-stim	s519	False
285.129	0.1	0.285	285.414	0	PA_with_intermediate	test	ward_and_allport	82	18.0	0.285	to_board	poldrack-single-stim	s519	False
285.421	1.0	4.04	285.42	0	PA_with_intermediate	test	ward_and_allport	-1	18.0	n/a	feedback	poldrack-single-stim	s519	False
289.466	3.106	3.106	292.572	1	PA_with_intermediate	test	ward_and_allport	82	19.0	3.106	to_hand	poldrack-single-stim	s519	False
292.573	0.1	1.713	294.286	0	PA_with_intermediate	test	ward_and_allport	89	19.0	1.713	to_board	poldrack-single-stim	s519	False
294.292	0.1	2.276	296.568	0	PA_with_intermediate	test	ward_and_allport	82	19.0	2.276	to_hand	poldrack-single-stim	s519	False
296.57	0.1	0.309	296.879	0	PA_with_intermediate	test	ward_and_allport	71	19.0	0.309	to_board	poldrack-single-stim	s519	False
296.886	0.1	0.748	297.634	0	PA_with_intermediate	test	ward_and_allport	89	19.0	0.748	to_hand	poldrack-single-stim	s519	False
297.634	0.1	0.363	297.997	0	PA_with_intermediate	test	ward_and_allport	82	19.0	0.363	to_board	poldrack-single-stim	s519	False
298.005	1.0	2.272	298.004	0	PA_with_intermediate	test	ward_and_allport	-1	19.0	n/a	feedback	poldrack-single-stim	s519	False
300.281	1.893	1.893	302.174	1	PA_with_intermediate	test	ward_and_allport	89	20.0	1.893	to_hand	poldrack-single-stim	s519	False
302.176	0.1	1.832	304.008	0	PA_with_intermediate	test	ward_and_allport	71	20.0	1.832	to_board	poldrack-single-stim	s519	False
304.015	0.1	0.739	304.754	0	PA_with_intermediate	test	ward_and_allport	89	20.0	0.739	to_hand	poldrack-single-stim	s519	False
304.754	0.1	0.355	305.109	0	PA_with_intermediate	test	ward_and_allport	82	20.0	0.355	to_board	poldrack-single-stim	s519	False
305.116	0.1	2.123	307.239	0	PA_with_intermediate	test	ward_and_allport	71	20.0	2.123	to_hand	poldrack-single-stim	s519	False
307.24	0.1	0.304	307.544	0	PA_with_intermediate	test	ward_and_allport	89	20.0	0.304	to_board	poldrack-single-stim	s519	False
307.551	1.0	2.136	307.55	0	PA_with_intermediate	test	ward_and_allport	-1	20.0	n/a	feedback	poldrack-single-stim	s519	False
309.693	1.949	1.949	311.642	1	PA_with_intermediate	test	ward_and_allport	89	21.0	1.949	to_hand	poldrack-single-stim	s519	False
311.643	0.1	1.06	312.703	0	PA_with_intermediate	test	ward_and_allport	82	21.0	1.06	to_board	poldrack-single-stim	s519	False
312.709	0.1	2.005	314.714	0	PA_with_intermediate	test	ward_and_allport	89	21.0	2.005	to_hand	poldrack-single-stim	s519	False
314.715	0.1	0.582	315.297	0	PA_with_intermediate	test	ward_and_allport	71	21.0	0.582	to_board	poldrack-single-stim	s519	False
315.304	0.1	0.536	315.84	0	PA_with_intermediate	test	ward_and_allport	82	21.0	0.536	to_hand	poldrack-single-stim	s519	False
315.842	0.1	0.356	316.198	0	PA_with_intermediate	test	ward_and_allport	89	21.0	0.356	to_board	poldrack-single-stim	s519	False
316.206	1.0	2.0	316.205	0	PA_with_intermediate	test	ward_and_allport	-1	21.0	n/a	feedback	poldrack-single-stim	s519	False
318.213	3.504	3.504	321.717	1	PA_with_intermediate	test	ward_and_allport	71	22.0	3.504	to_hand	poldrack-single-stim	s519	False
321.717	0.1	0.38	322.097	0	PA_with_intermediate	test	ward_and_allport	82	22.0	0.38	to_board	poldrack-single-stim	s519	False
322.104	0.1	1.159	323.263	0	PA_with_intermediate	test	ward_and_allport	71	22.0	1.159	to_hand	poldrack-single-stim	s519	False
323.263	0.1	0.299	323.562	0	PA_with_intermediate	test	ward_and_allport	89	22.0	0.299	to_board	poldrack-single-stim	s519	False
323.569	0.1	1.087	324.656	0	PA_with_intermediate	test	ward_and_allport	82	22.0	1.087	to_hand	poldrack-single-stim	s519	False
324.657	0.1	0.492	325.149	0	PA_with_intermediate	test	ward_and_allport	89	22.0	0.492	to_board	poldrack-single-stim	s519	False
325.157	1.0	2.0	325.156	0	PA_with_intermediate	test	ward_and_allport	-1	22.0	n/a	feedback	poldrack-single-stim	s519	False
327.163	1.31	1.31	328.473	1	PA_without_intermediate	test	ward_and_allport	89	23.0	1.31	to_hand	poldrack-single-stim	s519	False
328.474	0.1	1.246	329.72	0	PA_without_intermediate	test	ward_and_allport	71	23.0	1.246	to_board	poldrack-single-stim	s519	False
329.726	0.1	1.282	331.008	0	PA_without_intermediate	test	ward_and_allport	89	23.0	1.282	to_hand	poldrack-single-stim	s519	False
331.009	0.1	0.523	331.532	0	PA_without_intermediate	test	ward_and_allport	71	23.0	0.523	to_board	poldrack-single-stim	s519	False
331.538	0.1	0.876	332.414	0	PA_without_intermediate	test	ward_and_allport	89	23.0	0.876	to_hand	poldrack-single-stim	s519	False
332.415	0.1	0.319	332.734	0	PA_without_intermediate	test	ward_and_allport	82	23.0	0.319	to_board	poldrack-single-stim	s519	False
332.742	1.0	2.408	332.741	0	PA_without_intermediate	test	ward_and_allport	-1	23.0	n/a	feedback	poldrack-single-stim	s519	False
335.157	2.611	2.611	337.768	1	PA_with_intermediate	test	ward_and_allport	71	24.0	2.611	to_hand	poldrack-single-stim	s519	False
337.768	0.1	0.987	338.755	0	PA_with_intermediate	test	ward_and_allport	82	24.0	0.987	to_board	poldrack-single-stim	s519	False
338.763	0.1	0.314	339.077	0	PA_with_intermediate	test	ward_and_allport	71	24.0	0.314	to_hand	poldrack-single-stim	s519	False
339.077	0.1	0.318	339.395	0	PA_with_intermediate	test	ward_and_allport	89	24.0	0.318	to_board	poldrack-single-stim	s519	False
339.403	0.1	0.637	340.04	0	PA_with_intermediate	test	ward_and_allport	82	24.0	0.637	to_hand	poldrack-single-stim	s519	False
340.041	0.1	0.231	340.272	0	PA_with_intermediate	test	ward_and_allport	71	24.0	0.231	to_board	poldrack-single-stim	s519	False
340.28	1.0	3.768	340.279	0	PA_with_intermediate	test	ward_and_allport	-1	24.0	n/a	feedback	poldrack-single-stim	s519	False
344.055	2.189	2.189	346.244	1	PA_with_intermediate	test	ward_and_allport	82	25.0	2.189	to_hand	poldrack-single-stim	s519	False
346.245	0.1	0.47	346.715	0	PA_with_intermediate	test	ward_and_allport	89	25.0	0.47	to_board	poldrack-single-stim	s519	False
346.722	0.1	3.079	349.801	0	PA_with_intermediate	test	ward_and_allport	82	25.0	3.079	to_hand	poldrack-single-stim	s519	False
349.802	0.1	0.326	350.128	0	PA_with_intermediate	test	ward_and_allport	71	25.0	0.326	to_board	poldrack-single-stim	s519	False
350.134	0.1	0.353	350.487	0	PA_with_intermediate	test	ward_and_allport	89	25.0	0.353	to_hand	poldrack-single-stim	s519	False
350.488	0.1	0.26	350.748	0	PA_with_intermediate	test	ward_and_allport	71	25.0	0.26	to_board	poldrack-single-stim	s519	False
350.757	1.0	2.68	350.756	0	PA_with_intermediate	test	ward_and_allport	-1	25.0	n/a	feedback	poldrack-single-stim	s519	False
353.444	2.172	2.172	355.616	1	PA_without_intermediate	test	ward_and_allport	82	26.0	2.172	to_hand	poldrack-single-stim	s519	False
355.618	0.1	0.439	356.057	0	PA_without_intermediate	test	ward_and_allport	71	26.0	0.439	to_board	poldrack-single-stim	s519	False
356.064	0.1	1.407	357.471	0	PA_without_intermediate	test	ward_and_allport	82	26.0	1.407	to_hand	poldrack-single-stim	s519	False
357.473	0.1	0.275	357.748	0	PA_without_intermediate	test	ward_and_allport	89	26.0	0.275	to_board	poldrack-single-stim	s519	False
357.755	0.1	1.097	358.852	0	PA_without_intermediate	test	ward_and_allport	82	26.0	1.097	to_hand	poldrack-single-stim	s519	False
358.853	0.1	0.245	359.098	0	PA_without_intermediate	test	ward_and_allport	71	26.0	0.245	to_board	poldrack-single-stim	s519	False
359.107	1.0	3.224	359.106	0	PA_without_intermediate	test	ward_and_allport	-1	26.0	n/a	feedback	poldrack-single-stim	s519	False
362.338	1.606	1.606	363.944	1	PA_without_intermediate	test	ward_and_allport	89	27.0	1.606	to_hand	poldrack-single-stim	s519	False
363.946	0.1	0.644	364.59	0	PA_without_intermediate	test	ward_and_allport	71	27.0	0.644	to_board	poldrack-single-stim	s519	False
364.597	0.1	0.999	365.596	0	PA_without_intermediate	test	ward_and_allport	89	27.0	0.999	to_hand	poldrack-single-stim	s519	False
365.598	0.1	0.213	365.811	0	PA_without_intermediate	test	ward_and_allport	82	27.0	0.213	to_board	poldrack-single-stim	s519	False
365.818	0.1	0.462	366.28	0	PA_without_intermediate	test	ward_and_allport	89	27.0	0.462	to_hand	poldrack-single-stim	s519	False
366.281	0.1	0.346	366.627	0	PA_without_intermediate	test	ward_and_allport	71	27.0	0.346	to_board	poldrack-single-stim	s519	False
366.636	1.0	3.36	366.635	0	PA_without_intermediate	test	ward_and_allport	-1	27.0	n/a	feedback	poldrack-single-stim	s519	False
370.003	1.647	1.647	371.65	1	PA_without_intermediate	test	ward_and_allport	89	28.0	1.647	to_hand	poldrack-single-stim	s519	False
371.65	0.1	0.415	372.065	0	PA_without_intermediate	test	ward_and_allport	71	28.0	0.415	to_board	poldrack-single-stim	s519	False
372.073	0.1	0.77	372.843	0	PA_without_intermediate	test	ward_and_allport	89	28.0	0.77	to_hand	poldrack-single-stim	s519	False
372.843	0.1	0.269	373.112	0	PA_without_intermediate	test	ward_and_allport	82	28.0	0.269	to_board	poldrack-single-stim	s519	False
373.12	0.1	0.437	373.557	0	PA_without_intermediate	test	ward_and_allport	89	28.0	0.437	to_hand	poldrack-single-stim	s519	False
373.558	0.1	0.247	373.805	0	PA_without_intermediate	test	ward_and_allport	71	28.0	0.247	to_board	poldrack-single-stim	s519	False
373.814	1.0	2.0	373.813	0	PA_without_intermediate	test	ward_and_allport	-1	28.0	n/a	feedback	poldrack-single-stim	s519	False
375.822	2.759	2.759	378.581	1	PA_without_intermediate	test	ward_and_allport	71	29.0	2.759	to_hand	poldrack-single-stim	s519	False
378.582	0.1	0.274	378.856	0	PA_without_intermediate	test	ward_and_allport	82	29.0	0.274	to_board	poldrack-single-stim	s519	False
378.865	0.1	0.534	379.399	0	PA_without_intermediate	test	ward_and_allport	71	29.0	0.534	to_hand	poldrack-single-stim	s519	False
379.399	0.1	0.269	379.668	0	PA_without_intermediate	test	ward_and_allport	82	29.0	0.269	to_board	poldrack-single-stim	s519	False
379.677	0.1	0.846	380.523	0	PA_without_intermediate	test	ward_and_allport	71	29.0	0.846	to_hand	poldrack-single-stim	s519	False
380.524	0.1	0.379	380.903	0	PA_without_intermediate	test	ward_and_allport	89	29.0	0.379	to_board	poldrack-single-stim	s519	False
380.913	1.0	2.408	380.912	0	PA_without_intermediate	test	ward_and_allport	-1	29.0	n/a	feedback	poldrack-single-stim	s519	False
388.33	1.277	1.277	389.607	1	PA_with_intermediate	test	ward_and_allport	82	30.0	1.277	to_hand	poldrack-single-stim	s519	False
389.608	0.1	3.519	393.127	0	PA_with_intermediate	test	ward_and_allport	71	30.0	3.519	to_board	poldrack-single-stim	s519	False
393.135	0.1	1.403	394.538	0	PA_with_intermediate	test	ward_and_allport	82	30.0	1.403	to_hand	poldrack-single-stim	s519	False
394.54	0.1	0.501	395.041	0	PA_with_intermediate	test	ward_and_allport	89	30.0	0.501	to_board	poldrack-single-stim	s519	False
395.05	0.1	0.324	395.374	0	PA_with_intermediate	test	ward_and_allport	71	30.0	0.324	to_hand	poldrack-single-stim	s519	False
395.374	0.1	0.318	395.692	0	PA_with_intermediate	test	ward_and_allport	71	30.0	0.318	to_board	poldrack-single-stim	s519	False
395.701	0.1	0.835	396.536	0	PA_with_intermediate	test	ward_and_allport	71	30.0	0.835	to_hand	poldrack-single-stim	s519	False
396.538	0.1	0.518	397.056	0	PA_with_intermediate	test	ward_and_allport	82	30.0	0.518	to_board	poldrack-single-stim	s519	False
397.066	1.0	2.136	397.065	0	PA_with_intermediate	test	ward_and_allport	-1	30.0	n/a	feedback	poldrack-single-stim	s519	False
399.211	2.474	2.474	401.685	1	PA_without_intermediate	test	ward_and_allport	82	31.0	2.474	to_hand	poldrack-single-stim	s519	False
401.686	0.1	0.984	402.67	0	PA_without_intermediate	test	ward_and_allport	71	31.0	0.984	to_board	poldrack-single-stim	s519	False
402.678	0.1	0.526	403.204	0	PA_without_intermediate	test	ward_and_allport	82	31.0	0.526	to_hand	poldrack-single-stim	s519	False
403.206	0.1	0.599	403.805	0	PA_without_intermediate	test	ward_and_allport	71	31.0	0.599	to_board	poldrack-single-stim	s519	False
403.814	0.1	0.611	404.425	0	PA_without_intermediate	test	ward_and_allport	82	31.0	0.611	to_hand	poldrack-single-stim	s519	False
404.426	0.1	0.315	404.741	0	PA_without_intermediate	test	ward_and_allport	89	31.0	0.315	to_board	poldrack-single-stim	s519	False
404.751	1.0	5.128	404.75	0	PA_without_intermediate	test	ward_and_allport	-1	31.0	n/a	feedback	poldrack-single-stim	s519	False
409.888	1.606	1.606	411.494	1	PA_without_intermediate	test	ward_and_allport	82	32.0	1.606	to_hand	poldrack-single-stim	s519	False
411.494	0.1	0.693	412.187	0	PA_without_intermediate	test	ward_and_allport	71	32.0	0.693	to_board	poldrack-single-stim	s519	False
412.195	0.1	0.828	413.023	0	PA_without_intermediate	test	ward_and_allport	82	32.0	0.828	to_hand	poldrack-single-stim	s519	False
413.025	0.1	0.45	413.475	0	PA_without_intermediate	test	ward_and_allport	89	32.0	0.45	to_board	poldrack-single-stim	s519	False
413.482	0.1	1.108	414.59	0	PA_without_intermediate	test	ward_and_allport	82	32.0	1.108	to_hand	poldrack-single-stim	s519	False
414.592	0.1	0.563	415.155	0	PA_without_intermediate	test	ward_and_allport	71	32.0	0.563	to_board	poldrack-single-stim	s519	False
415.165	1.0	2.136	415.164	0	PA_without_intermediate	test	ward_and_allport	-1	32.0	n/a	feedback	poldrack-single-stim	s519	False
417.307	1.524	1.524	418.831	1	PA_without_intermediate	test	ward_and_allport	71	33.0	1.524	to_hand	poldrack-single-stim	s519	False
418.832	0.1	0.445	419.277	0	PA_without_intermediate	test	ward_and_allport	82	33.0	0.445	to_board	poldrack-single-stim	s519	False
419.284	0.1	0.457	419.741	0	PA_without_intermediate	test	ward_and_allport	71	33.0	0.457	to_hand	poldrack-single-stim	s519	False
419.741	0.1	0.477	420.218	0	PA_without_intermediate	test	ward_and_allport	89	33.0	0.477	to_board	poldrack-single-stim	s519	False
420.225	0.1	0.507	420.732	0	PA_without_intermediate	test	ward_and_allport	71	33.0	0.507	to_hand	poldrack-single-stim	s519	False
420.732	0.1	0.503	421.235	0	PA_without_intermediate	test	ward_and_allport	82	33.0	0.503	to_board	poldrack-single-stim	s519	False
421.243	1.0	5.264	421.242	0	PA_without_intermediate	test	ward_and_allport	-1	33.0	n/a	feedback	poldrack-single-stim	s519	False
426.514	1.73	1.73	428.244	1	PA_with_intermediate	test	ward_and_allport	71	34.0	1.73	to_hand	poldrack-single-stim	s519	False
428.245	0.1	1.009	429.254	0	PA_with_intermediate	test	ward_and_allport	82	34.0	1.009	to_board	poldrack-single-stim	s519	False
429.264	0.1	0.462	429.726	0	PA_with_intermediate	test	ward_and_allport	71	34.0	0.462	to_hand	poldrack-single-stim	s519	False
429.726	0.1	0.362	430.088	0	PA_with_intermediate	test	ward_and_allport	89	34.0	0.362	to_board	poldrack-single-stim	s519	False
430.097	0.1	0.606	430.703	0	PA_with_intermediate	test	ward_and_allport	82	34.0	0.606	to_hand	poldrack-single-stim	s519	False
430.704	0.1	0.242	430.946	0	PA_with_intermediate	test	ward_and_allport	71	34.0	0.242	to_board	poldrack-single-stim	s519	False
430.957	1.0	4.04	430.956	0	PA_with_intermediate	test	ward_and_allport	-1	34.0	n/a	feedback	poldrack-single-stim	s519	False
435.006	0.951	0.951	435.957	1	PA_with_intermediate	test	ward_and_allport	82	35.0	0.951	to_hand	poldrack-single-stim	s519	False
435.959	0.1	0.617	436.576	0	PA_with_intermediate	test	ward_and_allport	71	35.0	0.617	to_board	poldrack-single-stim	s519	False
436.583	0.1	3.473	440.056	0	PA_with_intermediate	test	ward_and_allport	82	35.0	3.473	to_hand	poldrack-single-stim	s519	False
440.057	0.1	0.514	440.571	0	PA_with_intermediate	test	ward_and_allport	89	35.0	0.514	to_board	poldrack-single-stim	s519	False
440.58	0.1	1.364	441.944	0	PA_with_intermediate	test	ward_and_allport	71	35.0	1.364	to_hand	poldrack-single-stim	s519	False
441.944	0.1	0.323	442.267	0	PA_with_intermediate	test	ward_and_allport	89	35.0	0.323	to_board	poldrack-single-stim	s519	False
442.278	1.0	2.136	442.277	0	PA_with_intermediate	test	ward_and_allport	-1	35.0	n/a	feedback	poldrack-single-stim	s519	False
444.424	2.612	2.612	447.036	1	PA_with_intermediate	test	ward_and_allport	82	36.0	2.612	to_hand	poldrack-single-stim	s519	False
447.038	0.1	0.454	447.492	0	PA_with_intermediate	test	ward_and_allport	71	36.0	0.454	to_board	poldrack-single-stim	s519	False
447.502	0.1	0.992	448.494	0	PA_with_intermediate	test	ward_and_allport	82	36.0	0.992	to_hand	poldrack-single-stim	s519	False
448.496	0.1	0.338	448.834	0	PA_with_intermediate	test	ward_and_allport	89	36.0	0.338	to_board	poldrack-single-stim	s519	False
448.843	0.1	2.474	451.317	0	PA_with_intermediate	test	ward_and_allport	71	36.0	2.474	to_hand	poldrack-single-stim	s519	False
451.318	0.1	1.014	452.332	0	PA_with_intermediate	test	ward_and_allport	82	36.0	1.014	to_board	poldrack-single-stim	s519	False
452.342	1.0	2.408	452.341	0	PA_with_intermediate	test	ward_and_allport	-1	36.0	n/a	feedback	poldrack-single-stim	s519	False
454.758	1.455	1.455	456.213	1	PA_without_intermediate	test	ward_and_allport	82	37.0	1.455	to_hand	poldrack-single-stim	s519	False
456.214	0.1	0.374	456.588	0	PA_without_intermediate	test	ward_and_allport	89	37.0	0.374	to_board	poldrack-single-stim	s519	False
456.595	0.1	1.008	457.603	0	PA_without_intermediate	test	ward_and_allport	82	37.0	1.008	to_hand	poldrack-single-stim	s519	False
457.605	0.1	1.004	458.609	0	PA_without_intermediate	test	ward_and_allport	89	37.0	1.004	to_board	poldrack-single-stim	s519	False
458.617	0.1	1.37	459.987	0	PA_without_intermediate	test	ward_and_allport	82	37.0	1.37	to_hand	poldrack-single-stim	s519	False
459.989	0.1	0.317	460.306	0	PA_without_intermediate	test	ward_and_allport	71	37.0	0.317	to_board	poldrack-single-stim	s519	False
460.316	1.0	2.68	460.315	0	PA_without_intermediate	test	ward_and_allport	-1	37.0	n/a	feedback	poldrack-single-stim	s519	False
463.006	1.426	1.426	464.432	1	PA_with_intermediate	test	ward_and_allport	89	38.0	1.426	to_hand	poldrack-single-stim	s519	False
464.434	0.1	0.976	465.41	0	PA_with_intermediate	test	ward_and_allport	71	38.0	0.976	to_board	poldrack-single-stim	s519	False
465.417	0.1	1.111	466.528	0	PA_with_intermediate	test	ward_and_allport	89	38.0	1.111	to_hand	poldrack-single-stim	s519	False
466.529	0.1	0.458	466.987	0	PA_with_intermediate	test	ward_and_allport	82	38.0	0.458	to_board	poldrack-single-stim	s519	False
466.996	0.1	0.837	467.833	0	PA_with_intermediate	test	ward_and_allport	71	38.0	0.837	to_hand	poldrack-single-stim	s519	False
467.834	0.1	0.408	468.242	0	PA_with_intermediate	test	ward_and_allport	82	38.0	0.408	to_board	poldrack-single-stim	s519	False
468.252	1.0	4.72	468.251	0	PA_with_intermediate	test	ward_and_allport	-1	38.0	n/a	feedback	poldrack-single-stim	s519	False
472.98	1.391	1.391	474.371	1	PA_without_intermediate	test	ward_and_allport	82	39.0	1.391	to_hand	poldrack-single-stim	s519	False
474.372	0.1	0.374	474.746	0	PA_without_intermediate	test	ward_and_allport	89	39.0	0.374	to_board	poldrack-single-stim	s519	False
474.756	0.1	0.768	475.524	0	PA_without_intermediate	test	ward_and_allport	82	39.0	0.768	to_hand	poldrack-single-stim	s519	False
475.524	0.1	0.589	476.113	0	PA_without_intermediate	test	ward_and_allport	89	39.0	0.589	to_board	poldrack-single-stim	s519	False
476.123	0.1	0.495	476.618	0	PA_without_intermediate	test	ward_and_allport	82	39.0	0.495	to_hand	poldrack-single-stim	s519	False
476.618	0.1	0.262	476.88	0	PA_without_intermediate	test	ward_and_allport	71	39.0	0.262	to_board	poldrack-single-stim	s519	False
476.892	1.0	3.224	476.891	0	PA_without_intermediate	test	ward_and_allport	-1	39.0	n/a	feedback	poldrack-single-stim	s519	False
480.125	1.019	1.019	481.144	1	PA_without_intermediate	test	ward_and_allport	89	40.0	1.019	to_hand	poldrack-single-stim	s519	False
481.145	0.1	0.488	481.633	0	PA_without_intermediate	test	ward_and_allport	71	40.0	0.488	to_board	poldrack-single-stim	s519	False
481.643	0.1	0.605	482.248	0	PA_without_intermediate	test	ward_and_allport	89	40.0	0.605	to_hand	poldrack-single-stim	s519	False
482.249	0.1	0.255	482.504	0	PA_without_intermediate	test	ward_and_allport	71	40.0	0.255	to_board	poldrack-single-stim	s519	False
482.51	0.1	0.424	482.934	0	PA_without_intermediate	test	ward_and_allport	89	40.0	0.424	to_hand	poldrack-single-stim	s519	False
482.936	0.1	0.245	483.181	0	PA_without_intermediate	test	ward_and_allport	82	40.0	0.245	to_board	poldrack-single-stim	s519	False
483.191	1.0	2.272	483.19	0	PA_without_intermediate	test	ward_and_allport	-1	40.0	n/a	feedback	poldrack-single-stim	s519	False
485.471	1.68	1.68	487.151	1	PA_with_intermediate	test	ward_and_allport	82	41.0	1.68	to_hand	poldrack-single-stim	s519	False
487.153	0.1	0.898	488.051	0	PA_with_intermediate	test	ward_and_allport	89	41.0	0.898	to_board	poldrack-single-stim	s519	False
488.058	0.1	1.253	489.311	0	PA_with_intermediate	test	ward_and_allport	82	41.0	1.253	to_hand	poldrack-single-stim	s519	False
489.312	0.1	0.413	489.725	0	PA_with_intermediate	test	ward_and_allport	71	41.0	0.413	to_board	poldrack-single-stim	s519	False
489.733	0.1	0.334	490.067	0	PA_with_intermediate	test	ward_and_allport	89	41.0	0.334	to_hand	poldrack-single-stim	s519	False
490.067	0.1	0.465	490.532	0	PA_with_intermediate	test	ward_and_allport	71	41.0	0.465	to_board	poldrack-single-stim	s519	False
490.54	1.0	3.632	490.539	0	PA_with_intermediate	test	ward_and_allport	-1	41.0	n/a	feedback	poldrack-single-stim	s519	False
494.18	1.013	1.013	495.193	1	PA_without_intermediate	test	ward_and_allport	89	42.0	1.013	to_hand	poldrack-single-stim	s519	False
495.194	0.1	0.378	495.572	0	PA_without_intermediate	test	ward_and_allport	82	42.0	0.378	to_board	poldrack-single-stim	s519	False
495.579	0.1	1.079	496.658	0	PA_without_intermediate	test	ward_and_allport	89	42.0	1.079	to_hand	poldrack-single-stim	s519	False
496.658	0.1	0.283	496.941	0	PA_without_intermediate	test	ward_and_allport	71	42.0	0.283	to_board	poldrack-single-stim	s519	False
496.951	0.1	0.484	497.435	0	PA_without_intermediate	test	ward_and_allport	89	42.0	0.484	to_hand	poldrack-single-stim	s519	False
497.436	0.1	0.235	497.671	0	PA_without_intermediate	test	ward_and_allport	82	42.0	0.235	to_board	poldrack-single-stim	s519	False
497.681	1.0	2.408	497.68	0	PA_without_intermediate	test	ward_and_allport	-1	42.0	n/a	feedback	poldrack-single-stim	s519	False
500.098	1.424	1.424	501.522	1	PA_without_intermediate	test	ward_and_allport	71	43.0	1.424	to_hand	poldrack-single-stim	s519	False
501.523	0.1	0.52	502.043	0	PA_without_intermediate	test	ward_and_allport	89	43.0	0.52	to_board	poldrack-single-stim	s519	False
502.05	0.1	1.01	503.06	0	PA_without_intermediate	test	ward_and_allport	71	43.0	1.01	to_hand	poldrack-single-stim	s519	False
503.061	0.1	0.233	503.294	0	PA_without_intermediate	test	ward_and_allport	89	43.0	0.233	to_board	poldrack-single-stim	s519	False
503.302	0.1	0.511	503.813	0	PA_without_intermediate	test	ward_and_allport	71	43.0	0.511	to_hand	poldrack-single-stim	s519	False
503.813	0.1	0.286	504.099	0	PA_without_intermediate	test	ward_and_allport	82	43.0	0.286	to_board	poldrack-single-stim	s519	False
504.108	1.0	2.0	504.107	0	PA_without_intermediate	test	ward_and_allport	-1	43.0	n/a	feedback	poldrack-single-stim	s519	False
506.116	2.593	2.593	508.709	1	PA_with_intermediate	test	ward_and_allport	89	44.0	2.593	to_hand	poldrack-single-stim	s519	False
508.71	0.1	0.298	509.008	0	PA_with_intermediate	test	ward_and_allport	82	44.0	0.298	to_board	poldrack-single-stim	s519	False
509.016	0.1	0.675	509.691	0	PA_with_intermediate	test	ward_and_allport	89	44.0	0.675	to_hand	poldrack-single-stim	s519	False
509.692	0.1	0.25	509.942	0	PA_with_intermediate	test	ward_and_allport	71	44.0	0.25	to_board	poldrack-single-stim	s519	False
509.949	0.1	0.427	510.376	0	PA_with_intermediate	test	ward_and_allport	89	44.0	0.427	to_hand	poldrack-single-stim	s519	False
510.377	0.1	3.842	514.219	0	PA_with_intermediate	test	ward_and_allport	89	44.0	3.842	to_board	poldrack-single-stim	s519	False
514.226	0.1	1.03	515.256	0	PA_with_intermediate	test	ward_and_allport	82	44.0	1.03	to_hand	poldrack-single-stim	s519	False
515.257	0.1	0.466	515.723	0	PA_with_intermediate	test	ward_and_allport	89	44.0	0.466	to_board	poldrack-single-stim	s519	False
515.735	1.0	2.0	515.734	0	PA_with_intermediate	test	ward_and_allport	-1	44.0	n/a	feedback	poldrack-single-stim	s519	False
522.751	1.437	1.437	524.188	1	PA_with_intermediate	test	ward_and_allport	89	45.0	1.437	to_hand	poldrack-single-stim	s519	False
524.189	0.1	0.25	524.439	0	PA_with_intermediate	test	ward_and_allport	82	45.0	0.25	to_board	poldrack-single-stim	s519	False
524.451	0.1	0.787	525.238	0	PA_with_intermediate	test	ward_and_allport	89	45.0	0.787	to_hand	poldrack-single-stim	s519	False
525.238	0.1	0.294	525.532	0	PA_with_intermediate	test	ward_and_allport	71	45.0	0.294	to_board	poldrack-single-stim	s519	False
525.544	0.1	0.319	525.863	0	PA_with_intermediate	test	ward_and_allport	82	45.0	0.319	to_hand	poldrack-single-stim	s519	False
525.864	0.1	0.371	526.235	0	PA_with_intermediate	test	ward_and_allport	71	45.0	0.371	to_board	poldrack-single-stim	s519	False
526.245	1.0	2.0	526.244	0	PA_with_intermediate	test	ward_and_allport	-1	45.0	n/a	feedback	poldrack-single-stim	s519	False
528.255	1.382	1.382	529.637	1	PA_with_intermediate	test	ward_and_allport	82	46.0	1.382	to_hand	poldrack-single-stim	s519	False
529.638	0.1	2.583	532.221	0	PA_with_intermediate	test	ward_and_allport	89	46.0	2.583	to_board	poldrack-single-stim	s519	False
532.229	0.1	0.529	532.758	0	PA_with_intermediate	test	ward_and_allport	82	46.0	0.529	to_hand	poldrack-single-stim	s519	False
532.759	0.1	0.415	533.174	0	PA_with_intermediate	test	ward_and_allport	71	46.0	0.415	to_board	poldrack-single-stim	s519	False
533.184	0.1	0.35	533.534	0	PA_with_intermediate	test	ward_and_allport	89	46.0	0.35	to_hand	poldrack-single-stim	s519	False
533.536	0.1	0.444	533.98	0	PA_with_intermediate	test	ward_and_allport	82	46.0	0.444	to_board	poldrack-single-stim	s519	False
533.992	1.0	2.408	533.991	0	PA_with_intermediate	test	ward_and_allport	-1	46.0	n/a	feedback	poldrack-single-stim	s519	False
