onset	duration	correct	correct_response	cue	experiment_exp_id	flanker_location	flanker_middle_direction	flanker_type	key_press	response_time	worker_id
3.5110479999999997	1.7	1.0	89.0	spatial	attention_network_task	down	left	incongruent	89	0.632	s130
6.119864	1.7	1.0	71.0	double	attention_network_task	down	right	incongruent	71	0.634	s130
8.727727999999999	1.7	1.0	89.0	double	attention_network_task	down	left	incongruent	89	0.537	s130
11.335728	1.7	1.0	89.0	double	attention_network_task	up	left	incongruent	89	0.671	s130
13.941	1.7	1.0	89.0	double	attention_network_task	down	left	congruent	89	0.556	s130
16.548	1.7	1.0	71.0	spatial	attention_network_task	down	right	incongruent	71	0.658	s130
19.155728	1.7	1.0	71.0	spatial	attention_network_task	down	right	congruent	71	0.471	s130
21.762	1.7	1.0	89.0	spatial	attention_network_task	up	left	congruent	89	0.413	s130
24.368	1.7	1.0	89.0	spatial	attention_network_task	down	left	incongruent	89	0.535	s130
26.973727999999998	1.7	1.0	89.0	double	attention_network_task	up	left	congruent	89	0.637	s130
29.583	1.7	1.0	89.0	spatial	attention_network_task	up	left	incongruent	89	0.46	s130
32.189864	1.7	1.0	71.0	spatial	attention_network_task	up	right	congruent	71	0.534	s130
34.797728	1.7	1.0	71.0	spatial	attention_network_task	up	right	congruent	71	0.416	s130
37.403	1.7	1.0	89.0	spatial	attention_network_task	down	left	congruent	89	0.461	s130
40.01	1.7	1.0	71.0	double	attention_network_task	down	right	incongruent	71	0.639	s130
42.617	1.7	1.0	71.0	double	attention_network_task	down	right	congruent	71	0.468	s130
45.225	1.7	1.0	89.0	spatial	attention_network_task	up	left	incongruent	89	0.608	s130
47.833	1.7	1.0	89.0	double	attention_network_task	up	left	congruent	89	0.496	s130
50.439	1.7	1.0	89.0	spatial	attention_network_task	down	left	incongruent	89	0.557	s130
53.043728	1.7	1.0	89.0	double	attention_network_task	up	left	congruent	89	0.607	s130
55.651864	1.7	1.0	89.0	double	attention_network_task	down	left	incongruent	89	0.616	s130
58.257912	1.7	1.0	89.0	double	attention_network_task	down	left	incongruent	89	0.468	s130
60.864728	1.7	1.0	89.0	spatial	attention_network_task	down	left	congruent	89	0.394	s130
63.470864	1.7	1.0	71.0	spatial	attention_network_task	up	right	congruent	71	0.666	s130
66.081864	1.7	1.0	89.0	double	attention_network_task	down	left	congruent	89	0.535	s130
68.687	1.7	1.0	89.0	double	attention_network_task	down	left	congruent	89	0.405	s130
71.294	1.7	1.0	89.0	spatial	attention_network_task	up	left	incongruent	89	0.606	s130
73.9	1.7	1.0	71.0	spatial	attention_network_task	up	right	congruent	71	0.426	s130
76.509	1.7	1.0	71.0	double	attention_network_task	down	right	incongruent	71	0.642	s130
79.114864	1.7	1.0	89.0	spatial	attention_network_task	down	left	incongruent	89	0.597	s130
81.721728	1.7	1.0	89.0	double	attention_network_task	down	left	incongruent	89	0.495	s130
84.329864	1.7	1.0	71.0	spatial	attention_network_task	down	right	congruent	71	0.551	s130
86.935864	1.7	1.0	71.0	double	attention_network_task	up	right	congruent	71	0.514	s130
89.541	1.7	1.0	71.0	double	attention_network_task	down	right	incongruent	71	0.702	s130
92.147	1.7	1.0	89.0	spatial	attention_network_task	down	left	congruent	89	0.481	s130
94.753592	1.7	1.0	71.0	double	attention_network_task	down	right	congruent	71	0.627	s130
97.360456	1.7	1.0	89.0	double	attention_network_task	up	left	congruent	89	0.627	s130
99.968592	1.7	1.0	89.0	spatial	attention_network_task	up	left	incongruent	89	0.408	s130
102.578	1.7	1.0	89.0	spatial	attention_network_task	up	left	congruent	89	0.457	s130
105.18459200000001	1.7	1.0	71.0	double	attention_network_task	down	right	congruent	71	0.491	s130
107.792	1.7	1.0	71.0	spatial	attention_network_task	down	right	congruent	71	0.363	s130
110.397592	1.7	1.0	71.0	spatial	attention_network_task	down	right	congruent	71	0.389	s130
113.004	1.7	1.0	71.0	spatial	attention_network_task	down	right	incongruent	71	0.5	s130
115.611	1.7	1.0	71.0	spatial	attention_network_task	down	right	incongruent	71	0.401	s130
118.218592	1.7	1.0	71.0	spatial	attention_network_task	up	right	incongruent	71	0.591	s130
120.824864	1.7	1.0	71.0	spatial	attention_network_task	down	right	incongruent	71	0.463	s130
123.431728	1.7	1.0	71.0	double	attention_network_task	up	right	incongruent	71	0.536	s130
126.03845600000001	1.7	1.0	89.0	double	attention_network_task	down	left	incongruent	89	0.581	s130
128.645728	1.7	1.0	71.0	spatial	attention_network_task	up	right	incongruent	71	0.51	s130
131.252	1.7	1.0	89.0	spatial	attention_network_task	down	left	incongruent	89	0.475	s130
133.857592	1.7	1.0	71.0	spatial	attention_network_task	up	right	incongruent	71	0.418	s130
136.466	1.7	1.0	89.0	spatial	attention_network_task	down	left	congruent	89	0.433	s130
139.074	1.7	1.0	89.0	double	attention_network_task	down	left	congruent	89	0.558	s130
141.681456	1.7	1.0	89.0	double	attention_network_task	up	left	incongruent	89	0.684	s130
144.286592	1.7	1.0	89.0	spatial	attention_network_task	up	left	congruent	89	0.424	s130
146.894	1.7	1.0	71.0	spatial	attention_network_task	down	right	congruent	71	0.472	s130
149.500864	1.7	1.0	71.0	spatial	attention_network_task	down	right	congruent	71	0.396	s130
152.108184	1.7	0.0	89.0	spatial	attention_network_task	down	left	incongruent	71	0.323	s130
154.713864	1.7	1.0	89.0	double	attention_network_task	down	left	congruent	89	0.507	s130
157.321	1.7	1.0	89.0	spatial	attention_network_task	up	left	congruent	89	0.443	s130
159.927864	1.7	1.0	71.0	double	attention_network_task	down	right	incongruent	71	0.478	s130
162.534864	1.7	1.0	71.0	spatial	attention_network_task	down	right	incongruent	71	0.439	s130
165.144864	1.7	1.0	89.0	double	attention_network_task	up	left	incongruent	89	0.477	s130
167.75145600000002	1.7	1.0	89.0	spatial	attention_network_task	up	left	congruent	89	0.346	s130
180.868	1.7	1.0	89.0	spatial	attention_network_task	down	left	congruent	89	0.527	s130
183.474728	1.7	1.0	71.0	double	attention_network_task	up	right	incongruent	71	0.521	s130
186.083	1.7	1.0	71.0	spatial	attention_network_task	down	right	congruent	71	0.502	s130
188.687864	1.7	1.0	89.0	spatial	attention_network_task	up	left	congruent	89	0.439	s130
191.294592	1.7	1.0	89.0	double	attention_network_task	down	left	incongruent	89	0.63	s130
193.901456	1.7	1.0	71.0	double	attention_network_task	up	right	congruent	71	0.499	s130
196.51	1.7	1.0	71.0	double	attention_network_task	up	right	incongruent	71	0.437	s130
199.114864	1.7	1.0	71.0	spatial	attention_network_task	up	right	incongruent	71	0.466	s130
201.720864	1.7	1.0	89.0	double	attention_network_task	up	left	incongruent	89	0.591	s130
204.328864	1.7	1.0	89.0	spatial	attention_network_task	up	left	incongruent	89	0.482	s130
206.936864	1.7	1.0	71.0	double	attention_network_task	up	right	congruent	71	0.518	s130
209.544728	1.7	1.0	71.0	spatial	attention_network_task	up	right	incongruent	71	0.433	s130
212.150864	1.7	1.0	89.0	spatial	attention_network_task	down	left	incongruent	89	0.426	s130
214.756592	1.7	1.0	71.0	spatial	attention_network_task	down	right	incongruent	71	0.542	s130
217.365	1.7	1.0	71.0	double	attention_network_task	down	right	incongruent	71	0.75	s130
219.971864	1.7	1.0	71.0	double	attention_network_task	up	right	congruent	71	0.48	s130
222.58	1.7	1.0	71.0	spatial	attention_network_task	down	right	congruent	71	0.44	s130
225.187864	1.7	1.0	71.0	double	attention_network_task	up	right	incongruent	71	0.655	s130
227.793048	1.7	1.0	89.0	spatial	attention_network_task	up	left	congruent	89	0.455	s130
230.399728	1.7	1.0	71.0	double	attention_network_task	up	right	congruent	71	0.475	s130
233.007864	1.7	1.0	89.0	double	attention_network_task	down	left	congruent	89	0.609	s130
235.615	1.7	1.0	71.0	double	attention_network_task	down	right	incongruent	71	0.53	s130
238.221864	1.7	1.0	89.0	spatial	attention_network_task	up	left	incongruent	89	0.574	s130
240.829	1.7	1.0	71.0	double	attention_network_task	up	right	congruent	71	0.606	s130
243.434864	1.7	1.0	89.0	spatial	attention_network_task	up	left	incongruent	89	0.471	s130
246.041728	1.7	1.0	89.0	double	attention_network_task	down	left	incongruent	89	0.885	s130
248.647728	1.7	1.0	71.0	spatial	attention_network_task	up	right	incongruent	71	0.468	s130
251.253864	1.7	1.0	89.0	double	attention_network_task	up	left	congruent	89	0.559	s130
253.862	1.7	1.0	89.0	double	attention_network_task	down	left	incongruent	89	0.473	s130
256.468864	1.7	1.0	71.0	double	attention_network_task	up	right	incongruent	71	0.486	s130
259.075	1.7	1.0	71.0	spatial	attention_network_task	up	right	congruent	71	0.376	s130
261.679728	1.7	1.0	89.0	double	attention_network_task	up	left	congruent	89	0.568	s130
264.288	1.7	1.0	89.0	spatial	attention_network_task	up	left	incongruent	89	0.535	s130
266.896	1.7	1.0	71.0	spatial	attention_network_task	up	right	incongruent	71	0.434	s130
269.503864	1.7	1.0	71.0	spatial	attention_network_task	up	right	congruent	71	0.39	s130
272.109728	1.7	1.0	71.0	spatial	attention_network_task	up	right	congruent	71	0.384	s130
274.716592	1.7	1.0	89.0	double	attention_network_task	up	left	incongruent	89	0.614	s130
277.325	1.7	1.0	71.0	double	attention_network_task	up	right	congruent	71	0.475	s130
279.931864	1.7	1.0	71.0	double	attention_network_task	down	right	congruent	71	0.676	s130
282.538864	1.7	1.0	71.0	spatial	attention_network_task	up	right	congruent	71	0.543	s130
285.147	1.7	1.0	71.0	double	attention_network_task	down	right	congruent	71	0.967	s130
287.752592	1.7	1.0	89.0	double	attention_network_task	up	left	incongruent	89	0.608	s130
290.359456	1.7	1.0	89.0	spatial	attention_network_task	down	left	congruent	89	0.72	s130
292.966864	1.7	1.0	89.0	spatial	attention_network_task	down	left	congruent	89	0.434	s130
295.573864	1.7	1.0	89.0	spatial	attention_network_task	up	left	congruent	89	0.431	s130
298.18	1.7	1.0	71.0	spatial	attention_network_task	down	right	incongruent	71	0.546	s130
300.787	1.7	1.0	89.0	double	attention_network_task	down	left	congruent	89	0.725	s130
303.393864	1.7	1.0	89.0	double	attention_network_task	down	left	congruent	89	0.574	s130
306.001	1.7	1.0	71.0	double	attention_network_task	up	right	congruent	71	0.497	s130
308.609864	1.7	1.0	71.0	double	attention_network_task	down	right	congruent	71	0.735	s130
311.217	1.7	1.0	71.0	double	attention_network_task	down	right	congruent	71	0.531	s130
313.822592	1.7	0.0	89.0	spatial	attention_network_task	down	left	congruent	71	0.388	s130
316.429	1.7	1.0	89.0	spatial	attention_network_task	down	left	incongruent	89	0.485	s130
319.036184	1.7	1.0	71.0	double	attention_network_task	up	right	incongruent	71	0.587	s130
321.64332	1.7	1.0	89.0	spatial	attention_network_task	up	left	congruent	89	0.445	s130
324.25	1.7	1.0	89.0	spatial	attention_network_task	down	left	congruent	89	0.464	s130
326.857864	1.7	1.0	71.0	spatial	attention_network_task	up	right	congruent	71	0.478	s130
329.464864	1.7	1.0	89.0	double	attention_network_task	up	left	incongruent	89	0.521	s130
332.071864	1.7	1.0	71.0	double	attention_network_task	up	right	incongruent	71	0.498	s130
334.677	1.7	1.0	71.0	double	attention_network_task	down	right	incongruent	71	0.702	s130
337.281864	1.7	1.0	71.0	spatial	attention_network_task	down	right	incongruent	71	0.524	s130
339.887048	1.7	1.0	71.0	spatial	attention_network_task	up	right	incongruent	71	0.451	s130
342.494864	1.7	1.0	71.0	double	attention_network_task	up	right	incongruent	71	0.479	s130
345.100592	1.7	1.0	89.0	double	attention_network_task	up	left	incongruent	89	0.424	s130
