onset	duration	movement_onset	block_duration	condition	correct	correct_response	experiment_exp_id	key_press	response_time	trial_id	trial_type	worker_id	junk
4.519	1.5	6.008	2.18	AX	1.0	89.0	dot_pattern_expectancy	89.0	0.489	probe	AX	s613	False
9.204	1.5	10.688	2.316	AY	1.0	71.0	dot_pattern_expectancy	71.0	0.484	probe	AY	s613	False
14.029	1.5	15.716	1.636	AY	1.0	71.0	dot_pattern_expectancy	71.0	0.687	probe	AY	s613	False
18.173	1.5	19.301	1.908	BX	1.0	71.0	dot_pattern_expectancy	71.0	0.128	probe	BX	s613	False
22.589	1.5	24.003	3.54	AX	1.0	89.0	dot_pattern_expectancy	89.0	0.414	probe	AX	s613	False
28.638	1.5	30.055	1.636	BX	1.0	71.0	dot_pattern_expectancy	71.0	0.417	probe	BX	s613	False
32.785	1.5	34.211	1.5	BY	1.0	71.0	dot_pattern_expectancy	71.0	0.426	probe	BY	s613	False
36.795	1.5	38.466	1.5	AX	1.0	89.0	dot_pattern_expectancy	89.0	0.671	probe	AX	s613	False
40.806	1.5	42.125	1.772	AX	1.0	89.0	dot_pattern_expectancy	89.0	0.319	probe	AX	s613	False
45.088	1.5	46.461	2.452	BY	1.0	71.0	dot_pattern_expectancy	71.0	0.373	probe	BY	s613	False
50.052	1.5	51.639	1.908	AX	1.0	89.0	dot_pattern_expectancy	89.0	0.587	probe	AX	s613	False
54.468	1.5	56.559	1.636	BX	0.0	71.0	dot_pattern_expectancy	89.0	1.091	probe	BX	s613	False
58.615	1.5	60.72	1.5	AX	1.0	89.0	dot_pattern_expectancy	89.0	1.105	probe	AX	s613	False
62.623	1.5	64.005	1.636	AX	1.0	89.0	dot_pattern_expectancy	89.0	0.382	probe	AX	s613	False
66.771	1.5	68.257	1.636	AX	1.0	89.0	dot_pattern_expectancy	89.0	0.486	probe	AX	s613	False
70.919	1.5	72.233	2.452	BY	1.0	71.0	dot_pattern_expectancy	71.0	0.314	probe	BY	s613	False
75.885	1.5	76.884	1.5	AX	0.0	89.0	dot_pattern_expectancy	-1.0	n/a	probe	AX	s613	False
79.894	1.5	80.893	1.5	BY	0.0	71.0	dot_pattern_expectancy	-1.0	n/a	probe	BY	s613	False
83.908	1.5	85.367	1.636	AX	1.0	89.0	dot_pattern_expectancy	89.0	0.459	probe	AX	s613	False
88.049	1.5	89.502	1.636	AX	1.0	89.0	dot_pattern_expectancy	89.0	0.453	probe	AX	s613	False
92.193	1.5	93.712	1.636	AY	0.0	71.0	dot_pattern_expectancy	89.0	0.519	probe	AY	s613	False
96.339	1.5	97.701	1.5	AX	0.0	89.0	dot_pattern_expectancy	71.0	0.362	probe	AX	s613	False
100.345	1.5	101.737	1.5	AX	1.0	89.0	dot_pattern_expectancy	89.0	0.392	probe	AX	s613	False
104.356	1.5	105.662	1.772	AX	1.0	89.0	dot_pattern_expectancy	89.0	0.306	probe	AX	s613	False
108.636	1.5	110.073	2.18	AX	1.0	89.0	dot_pattern_expectancy	89.0	0.437	probe	AX	s613	False
113.326	1.5	114.789	1.772	BX	1.0	71.0	dot_pattern_expectancy	71.0	0.463	probe	BX	s613	False
117.61	1.5	119.33	1.5	BY	1.0	71.0	dot_pattern_expectancy	71.0	0.72	probe	BY	s613	False
121.621	1.5	123.042	1.5	AX	1.0	89.0	dot_pattern_expectancy	89.0	0.421	probe	AX	s613	False
125.628	1.5	127.086	1.636	AX	1.0	89.0	dot_pattern_expectancy	89.0	0.458	probe	AX	s613	False
129.776	1.5	131.328	2.18	AY	1.0	71.0	dot_pattern_expectancy	71.0	0.552	probe	AY	s613	False
134.464	1.5	135.983	2.316	AY	0.0	71.0	dot_pattern_expectancy	89.0	0.519	probe	AY	s613	False
139.293	1.5	140.915	1.636	BX	1.0	71.0	dot_pattern_expectancy	71.0	0.622	probe	BX	s613	False
143.438	1.5	145.123	2.18	BX	0.0	71.0	dot_pattern_expectancy	89.0	0.685	probe	BX	s613	False
148.126	1.5	149.796	2.044	AY	1.0	71.0	dot_pattern_expectancy	71.0	0.67	probe	AY	s613	False
152.682	1.5	154.241	1.772	AX	1.0	89.0	dot_pattern_expectancy	89.0	0.559	probe	AX	s613	False
156.961	1.5	157.96	1.5	AX	0.0	89.0	dot_pattern_expectancy	-1.0	n/a	probe	AX	s613	False
160.969	1.5	162.281	2.18	AX	1.0	89.0	dot_pattern_expectancy	89.0	0.312	probe	AX	s613	False
165.658	1.5	167.282	2.452	AY	1.0	71.0	dot_pattern_expectancy	71.0	0.624	probe	AY	s613	False
170.619	1.5	172.79	1.636	AX	1.0	89.0	dot_pattern_expectancy	89.0	1.171	probe	AX	s613	False
174.768	1.5	176.282	1.908	AX	1.0	89.0	dot_pattern_expectancy	89.0	0.514	probe	AX	s613	False
189.699	1.5	191.381	1.772	AX	1.0	89.0	dot_pattern_expectancy	89.0	0.682	probe	AX	s613	False
193.981	1.5	195.309	1.5	AX	1.0	89.0	dot_pattern_expectancy	89.0	0.328	probe	AX	s613	False
197.995	1.5	199.483	2.452	AY	1.0	71.0	dot_pattern_expectancy	71.0	0.488	probe	AY	s613	False
202.958	1.5	204.547	1.772	AY	1.0	71.0	dot_pattern_expectancy	71.0	0.589	probe	AY	s613	False
207.238	1.5	208.727	1.908	AX	0.0	89.0	dot_pattern_expectancy	71.0	0.489	probe	AX	s613	False
211.655	1.5	213.028	1.908	AX	1.0	89.0	dot_pattern_expectancy	89.0	0.373	probe	AX	s613	False
216.068	1.5	217.436	2.588	AX	1.0	89.0	dot_pattern_expectancy	89.0	0.368	probe	AX	s613	False
221.166	1.5	222.726	1.5	AY	1.0	71.0	dot_pattern_expectancy	71.0	0.56	probe	AY	s613	False
225.177	1.5	226.583	1.5	BY	1.0	71.0	dot_pattern_expectancy	71.0	0.406	probe	BY	s613	False
229.189	1.5	230.478	1.5	BY	1.0	71.0	dot_pattern_expectancy	71.0	0.289	probe	BY	s613	False
233.197	1.5	234.496	1.636	AX	1.0	89.0	dot_pattern_expectancy	89.0	0.299	probe	AX	s613	False
237.345	1.5	238.638	2.044	BX	1.0	71.0	dot_pattern_expectancy	71.0	0.293	probe	BX	s613	False
241.904	1.5	243.27	1.772	AX	0.0	89.0	dot_pattern_expectancy	71.0	0.366	probe	AX	s613	False
246.187	1.5	247.808	2.588	BX	1.0	71.0	dot_pattern_expectancy	71.0	0.621	probe	BX	s613	False
251.285	1.5	252.944	1.5	AY	1.0	71.0	dot_pattern_expectancy	71.0	0.659	probe	AY	s613	False
255.294	1.5	256.82	2.452	AX	1.0	89.0	dot_pattern_expectancy	89.0	0.526	probe	AX	s613	False
260.254	1.5	261.692	1.636	BY	1.0	71.0	dot_pattern_expectancy	71.0	0.438	probe	BY	s613	False
264.399	1.5	265.827	1.636	AX	0.0	89.0	dot_pattern_expectancy	71.0	0.428	probe	AX	s613	False
268.545	1.5	269.882	1.5	AX	1.0	89.0	dot_pattern_expectancy	89.0	0.337	probe	AX	s613	False
272.554	1.5	273.907	1.636	BY	1.0	71.0	dot_pattern_expectancy	71.0	0.353	probe	BY	s613	False
276.7	1.5	278.182	1.5	AX	1.0	89.0	dot_pattern_expectancy	89.0	0.482	probe	AX	s613	False
280.709	1.5	282.214	2.18	AY	1.0	71.0	dot_pattern_expectancy	71.0	0.505	probe	AY	s613	False
285.4	1.5	286.758	1.5	AX	1.0	89.0	dot_pattern_expectancy	89.0	0.358	probe	AX	s613	False
289.409	1.5	290.814	1.908	AX	1.0	89.0	dot_pattern_expectancy	89.0	0.405	probe	AX	s613	False
293.829	1.5	294.856	1.636	BY	1.0	71.0	dot_pattern_expectancy	71.0	0.027	probe	BY	s613	False
297.974	1.5	298.973	1.636	BY	0.0	71.0	dot_pattern_expectancy	-1.0	n/a	probe	BY	s613	False
302.118	1.5	303.409	1.636	AX	1.0	89.0	dot_pattern_expectancy	89.0	0.291	probe	AX	s613	False
306.264	1.5	307.758	1.5	AX	1.0	89.0	dot_pattern_expectancy	89.0	0.494	probe	AX	s613	False
310.276	1.5	312.172	2.044	BY	1.0	71.0	dot_pattern_expectancy	71.0	0.896	probe	BY	s613	False
314.833	1.5	316.433	2.18	AY	1.0	71.0	dot_pattern_expectancy	71.0	0.6	probe	AY	s613	False
319.521	1.5	321.41	1.636	AY	1.0	71.0	dot_pattern_expectancy	71.0	0.889	probe	AY	s613	False
323.667	1.5	325.204	1.772	AY	1.0	71.0	dot_pattern_expectancy	71.0	0.537	probe	AY	s613	False
327.951	1.5	329.269	1.5	BY	1.0	71.0	dot_pattern_expectancy	71.0	0.318	probe	BY	s613	False
331.959	1.5	333.643	1.908	BX	0.0	71.0	dot_pattern_expectancy	89.0	0.684	probe	BX	s613	False
336.378	1.5	337.953	2.044	AX	1.0	89.0	dot_pattern_expectancy	89.0	0.575	probe	AX	s613	False
340.934	1.5	342.501	1.636	AX	1.0	89.0	dot_pattern_expectancy	89.0	0.567	probe	AX	s613	False
345.077	1.5	346.467	1.772	AX	1.0	89.0	dot_pattern_expectancy	89.0	0.39	probe	AX	s613	False
349.363	1.5	350.864	1.636	AX	1.0	89.0	dot_pattern_expectancy	89.0	0.501	probe	AX	s613	False
353.51	1.5	354.509	1.772	BX	0.0	71.0	dot_pattern_expectancy	-1.0	n/a	probe	BX	s613	False
357.793	1.5	358.792	1.5	AX	0.0	89.0	dot_pattern_expectancy	-1.0	n/a	probe	AX	s613	False
372.313	1.5	373.312	1.636	BY	0.0	71.0	dot_pattern_expectancy	-1.0	n/a	probe	BY	s613	False
376.46	1.5	378.059	1.5	AY	1.0	71.0	dot_pattern_expectancy	71.0	0.599	probe	AY	s613	False
380.47	1.5	381.976	2.044	AX	1.0	89.0	dot_pattern_expectancy	89.0	0.506	probe	AX	s613	False
385.021	1.5	386.37	1.772	BY	1.0	71.0	dot_pattern_expectancy	71.0	0.349	probe	BY	s613	False
389.3	1.5	390.654	1.636	BX	1.0	71.0	dot_pattern_expectancy	71.0	0.354	probe	BX	s613	False
393.444	1.5	395.063	1.636	AX	1.0	89.0	dot_pattern_expectancy	89.0	0.619	probe	AX	s613	False
397.591	1.5	398.59	1.5	AX	0.0	89.0	dot_pattern_expectancy	-1.0	n/a	probe	AX	s613	False
401.602	1.5	403.141	1.5	AX	1.0	89.0	dot_pattern_expectancy	89.0	0.539	probe	AX	s613	False
405.613	1.5	406.612	2.044	AY	0.0	71.0	dot_pattern_expectancy	-1.0	n/a	probe	AY	s613	False
410.166	1.5	411.165	2.452	AX	0.0	89.0	dot_pattern_expectancy	-1.0	n/a	probe	AX	s613	False
415.126	1.5	416.523	1.908	AX	1.0	89.0	dot_pattern_expectancy	89.0	0.397	probe	AX	s613	False
419.546	1.5	420.959	1.5	AX	1.0	89.0	dot_pattern_expectancy	89.0	0.413	probe	AX	s613	False
423.557	1.5	425.401	1.908	AX	1.0	89.0	dot_pattern_expectancy	89.0	0.844	probe	AX	s613	False
427.974	1.5	429.474	2.18	BX	0.0	71.0	dot_pattern_expectancy	89.0	0.5	probe	BX	s613	False
432.665	1.5	433.664	1.5	AX	0.0	89.0	dot_pattern_expectancy	-1.0	n/a	probe	AX	s613	False
436.674	1.5	437.673	1.908	BY	0.0	71.0	dot_pattern_expectancy	-1.0	n/a	probe	BY	s613	False
441.09	1.5	442.64	2.316	BX	0.0	71.0	dot_pattern_expectancy	89.0	0.55	probe	BX	s613	False
445.919	1.5	446.918	2.316	AY	0.0	71.0	dot_pattern_expectancy	-1.0	n/a	probe	AY	s613	False
450.749	1.5	451.748	1.636	BX	0.0	71.0	dot_pattern_expectancy	-1.0	n/a	probe	BX	s613	False
454.896	1.5	456.464	1.5	AY	1.0	71.0	dot_pattern_expectancy	71.0	0.568	probe	AY	s613	False
458.909	1.5	459.908	1.908	BY	0.0	71.0	dot_pattern_expectancy	-1.0	n/a	probe	BY	s613	False
463.326	1.5	464.325	1.5	AX	0.0	89.0	dot_pattern_expectancy	-1.0	n/a	probe	AX	s613	False
467.339	1.5	468.338	2.316	AY	0.0	71.0	dot_pattern_expectancy	-1.0	n/a	probe	AY	s613	False
472.165	1.5	473.722	1.5	AX	1.0	89.0	dot_pattern_expectancy	89.0	0.557	probe	AX	s613	False
476.174	1.5	477.173	2.724	AY	0.0	71.0	dot_pattern_expectancy	-1.0	n/a	probe	AY	s613	False
481.409	1.5	482.408	1.5	AX	0.0	89.0	dot_pattern_expectancy	-1.0	n/a	probe	AX	s613	False
485.417	1.5	487.158	1.636	AX	1.0	89.0	dot_pattern_expectancy	89.0	0.741	probe	AX	s613	False
489.561	1.5	490.56	1.636	AX	0.0	89.0	dot_pattern_expectancy	-1.0	n/a	probe	AX	s613	False
493.708	1.5	495.753	1.772	AX	1.0	89.0	dot_pattern_expectancy	89.0	1.045	probe	AX	s613	False
497.991	1.5	498.99	1.772	BY	0.0	71.0	dot_pattern_expectancy	-1.0	n/a	probe	BY	s613	False
502.274	1.5	503.273	1.5	AX	0.0	89.0	dot_pattern_expectancy	-1.0	n/a	probe	AX	s613	False
506.282	1.5	507.695	2.452	BY	1.0	71.0	dot_pattern_expectancy	71.0	0.413	probe	BY	s613	False
511.242	1.5	512.75	1.636	AX	0.0	89.0	dot_pattern_expectancy	71.0	0.508	probe	AX	s613	False
515.387	1.5	516.923	1.636	AX	1.0	89.0	dot_pattern_expectancy	89.0	0.536	probe	AX	s613	False
519.533	1.5	520.807	1.5	BX	1.0	71.0	dot_pattern_expectancy	71.0	0.274	probe	BX	s613	False
523.544	1.5	525.326	1.5	BX	0.0	71.0	dot_pattern_expectancy	89.0	0.782	probe	BX	s613	False
527.555	1.5	528.554	2.316	AX	0.0	89.0	dot_pattern_expectancy	-1.0	n/a	probe	AX	s613	False
532.376	1.5	533.951	2.044	AY	1.0	71.0	dot_pattern_expectancy	71.0	0.575	probe	AY	s613	False
536.926	1.5	537.925	3.948	AX	0.0	89.0	dot_pattern_expectancy	-1.0	n/a	probe	AX	s613	False
543.382	1.5	544.381	1.636	AX	0.0	89.0	dot_pattern_expectancy	-1.0	n/a	probe	AX	s613	False
558.039	1.5	560.09	1.636	AY	1.0	71.0	dot_pattern_expectancy	71.0	1.051	probe	AY	s613	False
562.184	1.5	563.183	1.636	AX	0.0	89.0	dot_pattern_expectancy	-1.0	n/a	probe	AX	s613	False
566.325	1.5	567.797	1.5	AX	1.0	89.0	dot_pattern_expectancy	89.0	0.472	probe	AX	s613	False
570.333	1.5	571.332	1.5	AX	0.0	89.0	dot_pattern_expectancy	-1.0	n/a	probe	AX	s613	False
574.341	1.5	576.705	1.908	AX	1.0	89.0	dot_pattern_expectancy	89.0	1.364	probe	AX	s613	False
578.755	1.5	579.754	1.636	BX	0.0	71.0	dot_pattern_expectancy	-1.0	n/a	probe	BX	s613	False
582.909	1.5	583.908	2.044	AX	0.0	89.0	dot_pattern_expectancy	-1.0	n/a	probe	AX	s613	False
587.467	1.5	588.466	1.772	AX	0.0	89.0	dot_pattern_expectancy	-1.0	n/a	probe	AX	s613	False
591.75	1.5	592.749	1.5	AX	0.0	89.0	dot_pattern_expectancy	-1.0	n/a	probe	AX	s613	False
595.759	1.5	597.445	2.18	AX	1.0	89.0	dot_pattern_expectancy	89.0	0.686	probe	AX	s613	False
600.449	1.5	601.448	1.5	AX	0.0	89.0	dot_pattern_expectancy	-1.0	n/a	probe	AX	s613	False
604.46	1.5	607.447	3.676	BX	1.0	71.0	dot_pattern_expectancy	71.0	1.987	probe	BX	s613	False
610.644	1.5	612.344	1.636	BY	1.0	71.0	dot_pattern_expectancy	71.0	0.7	probe	BY	s613	False
614.789	1.5	615.788	1.636	BY	0.0	71.0	dot_pattern_expectancy	-1.0	n/a	probe	BY	s613	False
618.935	1.5	620.459	1.5	BX	0.0	71.0	dot_pattern_expectancy	89.0	0.524	probe	BX	s613	False
622.946	1.5	623.945	1.908	AX	0.0	89.0	dot_pattern_expectancy	-1.0	n/a	probe	AX	s613	False
627.36	1.5	628.359	1.636	AX	0.0	89.0	dot_pattern_expectancy	-1.0	n/a	probe	AX	s613	False
631.507	1.5	632.506	1.5	BX	0.0	71.0	dot_pattern_expectancy	-1.0	n/a	probe	BX	s613	False
635.515	1.5	637.677	1.908	AX	1.0	89.0	dot_pattern_expectancy	89.0	1.162	probe	AX	s613	False
639.931	1.5	640.93	2.18	BY	0.0	71.0	dot_pattern_expectancy	-1.0	n/a	probe	BY	s613	False
644.617	1.5	646.323	1.772	AX	1.0	89.0	dot_pattern_expectancy	89.0	0.706	probe	AX	s613	False
648.898	1.5	649.897	1.5	AX	0.0	89.0	dot_pattern_expectancy	-1.0	n/a	probe	AX	s613	False
652.91	1.5	654.36	1.5	AX	1.0	89.0	dot_pattern_expectancy	89.0	0.45	probe	AX	s613	False
656.921	1.5	657.92	2.044	AX	0.0	89.0	dot_pattern_expectancy	-1.0	n/a	probe	AX	s613	False
661.481	1.5	662.828	2.86	AX	1.0	89.0	dot_pattern_expectancy	89.0	0.347	probe	AX	s613	False
666.852	1.5	667.851	1.5	BX	0.0	71.0	dot_pattern_expectancy	-1.0	n/a	probe	BX	s613	False
670.863	1.5	671.862	1.772	BY	0.0	71.0	dot_pattern_expectancy	-1.0	n/a	probe	BY	s613	False
675.146	1.5	676.606	1.772	AX	1.0	89.0	dot_pattern_expectancy	89.0	0.46	probe	AX	s613	False
679.427	1.5	680.982	2.86	AX	1.0	89.0	dot_pattern_expectancy	89.0	0.555	probe	AX	s613	False
684.799	1.5	685.798	1.772	AX	0.0	89.0	dot_pattern_expectancy	-1.0	n/a	probe	AX	s613	False
689.08	1.5	690.64	1.636	BX	0.0	71.0	dot_pattern_expectancy	89.0	0.56	probe	BX	s613	False
693.224	1.5	694.223	2.452	BX	0.0	71.0	dot_pattern_expectancy	-1.0	n/a	probe	BX	s613	False
698.188	1.5	699.187	1.636	AX	0.0	89.0	dot_pattern_expectancy	-1.0	n/a	probe	AX	s613	False
702.331	1.5	703.33	1.5	BX	0.0	71.0	dot_pattern_expectancy	-1.0	n/a	probe	BX	s613	False
706.34	1.5	707.339	1.636	AX	0.0	89.0	dot_pattern_expectancy	-1.0	n/a	probe	AX	s613	False
710.484	1.5	711.483	1.636	AX	0.0	89.0	dot_pattern_expectancy	-1.0	n/a	probe	AX	s613	False
714.628	1.5	715.627	2.18	BY	0.0	71.0	dot_pattern_expectancy	-1.0	n/a	probe	BY	s613	False
719.317	1.5	720.316	1.5	AX	0.0	89.0	dot_pattern_expectancy	-1.0	n/a	probe	AX	s613	False
723.33	1.5	725.011	1.636	AY	1.0	71.0	dot_pattern_expectancy	71.0	0.681	probe	AY	s613	False
727.477	1.5	729.098	1.636	AX	1.0	89.0	dot_pattern_expectancy	89.0	0.621	probe	AX	s613	False
