onset	duration	movement_onset	coded_response	experiment_exp_id	item_coding	item_text	possible_responses	response_time	survey	trial_type	worker_id	junk
1.006	3.982	6.191	3.0	survey_medley	forward	I refuse things that are bad for me.	66,89,71,82,77	5.185	brief	Q14	s613	False
10.144	3.982	17.712	2.0	survey_medley	reverse	I have a hard time breaking bad habits.	66,89,71,82,77	7.568	brief	Q10	s613	False
19.76	3.982	24.686	3.0	survey_medley	reverse	I have trouble concentrating.	66,89,71,82,77	4.926	brief	Q18	s613	False
29.374	3.982	32.012	5.0	survey_medley	reverse	I say inappropriate things.	66,89,71,82,77	2.638	brief	Q12	s613	False
39.669	3.982	47.579	2.0	survey_medley	forward	I could do anything I want in the future.	66,89,71,82,77	7.91	future_time	Q27	s613	False
49.761	3.982	49.76	0.0	survey_medley	forward	Sometimes when I feel bad, I can't seem to stop what I am doing even though it is making me feel worse.	66,89,71,82	n/a	upps	Q32	s613	True
58.833	3.982	58.864	4.0	survey_medley	reverse	I have difficulty maintaining my focus on projects that take more than a few months to complete.	66,89,71,82,77	0.031	grit	Q06	s613	True
68.991	3.982	70.866	5.0	survey_medley	forward	I am a hard worker.	66,89,71,82,77	1.875	grit	Q04	s613	False
78.878	3.982	83.231	2.0	survey_medley	reverse	New ideas and projects sometimes distract me from previous ones.	66,89,71,82,77	4.353	grit	Q01	s613	False
88.561	3.982	93.536	4.0	survey_medley	reverse	I often act without thinking through all the alternatives.	66,89,71,82,77	4.975	brief	Q21	s613	False
98.109	3.982	102.319	4.0	survey_medley	reverse	I often set a goal but later choose to pursue a different one.	66,89,71,82,77	4.21	grit	Q05	s613	False
109.423	3.982	114.286	3.0	survey_medley	forward	Many opportunities await me in the future.	66,89,71,82,77	4.863	future_time	Q22	s613	False
119.036	3.982	125.077	2.0	survey_medley	forward	My future seems infinite to me.	66,89,71,82,77	6.041	future_time	Q26	s613	False
128.243	3.982	133.196	3.0	survey_medley	forward	There is plenty of time left in my life to make new plans.	66,89,71,82,77	4.953	future_time	Q28	s613	False
137.789	3.982	140.317	4.0	survey_medley	reverse	I am lazy.	66,89,71,82,77	2.528	brief	Q11	s613	False
147.267	3.982	152.171	3.0	survey_medley	forward	Setbacks don't discourage me.	66,89,71,82,77	4.904	grit	Q02	s613	False
156.473	3.982	162.084	4.0	survey_medley	forward	When I am really excited, I tend not to think of the consequences of my actions.	66,89,71,82	5.611	upps	Q36	s613	False
166.565	3.982	171.7	2.0	survey_medley	forward	Do you sometimes like doing things that are a bit frightening?	66,89	5.135	impulsive_venture	Q39	s613	False
177.473	3.982	183.159	2.0	survey_medley	forward	I am good at resisting temptation.	66,89,71,82,77	5.686	brief	Q09	s613	False
187.364	3.982	192.133	2.0	survey_medley	reverse	I do certain things that are bad for me, if they are fun.	66,89,71,82,77	4.769	brief	Q13	s613	False
196.503	3.982	202.26	4.0	survey_medley	forward	I am able to work effectively toward long-term goals.	66,89,71,82,77	5.757	brief	Q19	s613	False
206.868	3.982	211.309	3.0	survey_medley	reverse	Pleasure and fun sometimes keep me from getting work done.	66,89,71,82,77	4.441	brief	Q17	s613	False
216.55	3.982	222.014	4.0	survey_medley	forward	Others would say I make bad choices when I am extremely happy about something.	66,89,71,82	5.464	upps	Q33	s613	False
226.71	3.982	234.862	2.0	survey_medley	reverse	There are only limited possibilities in my future.	66,89,71,82,77	8.152	future_time	Q30	s613	False
235.918	3.982	243.493	2.0	survey_medley	forward	I finish whatever I begin.	66,89,71,82,77	7.575	grit	Q07	s613	False
247.095	3.982	251.077	3.0	survey_medley	forward	Most of my life lies ahead of me.	66,89,71,82,77	3.982	future_time	Q25	s613	False
256.369	3.982	261.586	1.0	survey_medley	forward	People would say that I have iron self-discipline.	66,89,71,82,77	5.217	brief	Q16	s613	False
265.984	3.982	269.875	3.0	survey_medley	reverse	Sometimes I can't stop myself from doing something, even if I know it is wrong.	66,89,71,82,77	3.891	brief	Q20	s613	False
275.055	3.982	281.097	1.0	survey_medley	forward	Do you welcome new and exciting experiences and sensations even if they are a little frightening and unconventional?	66,89	6.042	impulsive_venture	Q38	s613	False
284.061	3.982	288.351	4.0	survey_medley	forward	I expect that I will set many new goals in the future.	66,89,71,82,77	4.29	future_time	Q23	s613	False
298.369	3.982	300.852	2.0	survey_medley	reverse	I wish I had more self-discipline.	66,89,71,82,77	2.483	brief	Q15	s613	False
307.44	3.982	312.408	4.0	survey_medley	forward	When I get really happy about something, I tend to do things that can have bad consequences.	66,89,71,82	4.968	upps	Q34	s613	False
317.736	3.982	323.472	3.0	survey_medley	forward	I tend to act without thinking when I am really excited.	66,89,71,82	5.736	upps	Q37	s613	False
329.526	3.982	334.74	5.0	survey_medley	forward	My future is filled with possibilities.	66,89,71,82,77	5.214	future_time	Q24	s613	False
338.733	3.982	346.011	4.0	survey_medley	reverse	As I get older, I begin to experience time as limited.	66,89,71,82,77	7.278	future_time	Q31	s613	False
348.214	3.982	350.496	4.0	survey_medley	forward	I am diligent.	66,89,71,82,77	2.282	grit	Q08	s613	False
358.171	3.982	366.544	4.0	survey_medley	forward	When overjoyed, I feel like I cant stop myself from going overboard.	66,89,71,82	8.373	upps	Q35	s613	False
370.03	3.982	376.956	2.0	survey_medley	reverse	I have been obsessed with a certain idea or project for a short time but later lost interest.	66,89,71,82,77	6.926	grit	Q03	s613	False
379.237	3.982	385.017	2.0	survey_medley	forward	Would you enjoy the sensation of skiing very fast down a high mountain slope?	66,89	5.78	impulsive_venture	Q40	s613	False
390.756	3.982	396.395	3.0	survey_medley	reverse	I have the sense that time is running out.	66,89,71,82,77	5.639	future_time	Q29	s613	False
