onset	duration	correct	correct_response	cue	experiment_exp_id	flanker_location	flanker_middle_direction	flanker_type	key_press	response_time	worker_id
3.523864	1.7	1.0	71.0	double	attention_network_task	up	right	congruent	71	0.668	s588
6.132	1.7	1.0	89.0	double	attention_network_task	up	left	incongruent	89	0.7	s588
8.74	1.7	1.0	71.0	spatial	attention_network_task	down	right	congruent	71	0.782	s588
11.347592	1.7	1.0	71.0	double	attention_network_task	down	right	congruent	71	0.653	s588
13.955456	1.7	1.0	89.0	double	attention_network_task	up	left	congruent	89	0.717	s588
16.564592	1.7	1.0	71.0	spatial	attention_network_task	down	right	incongruent	71	0.742	s588
19.173	1.7	1.0	89.0	spatial	attention_network_task	up	left	congruent	89	0.611	s588
21.785592	1.7	1.0	89.0	double	attention_network_task	up	left	congruent	89	0.708	s588
24.399	1.7	1.0	89.0	spatial	attention_network_task	down	left	congruent	89	0.722	s588
27.012592	1.7	1.0	71.0	spatial	attention_network_task	down	right	congruent	71	0.712	s588
29.624	1.7	1.0	89.0	spatial	attention_network_task	up	left	incongruent	89	0.544	s588
32.234	1.7	1.0	89.0	spatial	attention_network_task	up	left	incongruent	89	0.657	s588
34.845591999999996	1.7	1.0	89.0	spatial	attention_network_task	up	left	incongruent	89	0.736	s588
37.455864	1.7	1.0	89.0	spatial	attention_network_task	down	left	incongruent	89	0.727	s588
40.063728000000005	1.7	1.0	71.0	double	attention_network_task	down	right	incongruent	71	0.698	s588
42.673456	1.7	1.0	89.0	double	attention_network_task	up	left	incongruent	89	0.909	s588
45.285728000000006	1.7	1.0	89.0	spatial	attention_network_task	down	left	incongruent	89	0.903	s588
47.894	1.7	1.0	71.0	spatial	attention_network_task	down	right	incongruent	71	0.712	s588
50.505592	1.7	1.0	71.0	spatial	attention_network_task	down	right	incongruent	71	0.651	s588
53.115	1.7	1.0	89.0	spatial	attention_network_task	down	left	congruent	89	0.88	s588
55.723	1.7	1.0	71.0	double	attention_network_task	down	right	congruent	71	0.717	s588
58.331455999999996	1.7	1.0	71.0	double	attention_network_task	up	right	incongruent	71	0.9	s588
60.939592	1.7	1.0	71.0	spatial	attention_network_task	up	right	congruent	71	0.714	s588
63.548	1.7	1.0	89.0	spatial	attention_network_task	up	left	congruent	89	0.554	s588
66.160864	1.7	1.0	71.0	spatial	attention_network_task	up	right	congruent	71	0.85	s588
68.76818399999999	1.7	1.0	71.0	spatial	attention_network_task	up	right	incongruent	71	0.626	s588
71.376864	1.7	1.0	89.0	double	attention_network_task	up	left	congruent	89	0.662	s588
73.99	1.7	1.0	89.0	spatial	attention_network_task	up	left	congruent	89	0.998	s588
76.598864	1.7	1.0	71.0	double	attention_network_task	up	right	incongruent	71	0.537	s588
79.206864	1.7	1.0	71.0	spatial	attention_network_task	up	right	incongruent	71	0.551	s588
81.814864	1.7	1.0	89.0	double	attention_network_task	down	left	incongruent	89	0.836	s588
84.42245600000001	1.7	1.0	71.0	spatial	attention_network_task	up	right	congruent	71	0.705	s588
87.034	1.7	1.0	71.0	spatial	attention_network_task	down	right	congruent	71	0.538	s588
89.641728	1.7	1.0	89.0	double	attention_network_task	down	left	incongruent	89	0.764	s588
92.253	1.7	1.0	89.0	spatial	attention_network_task	down	left	congruent	89	0.817	s588
94.860864	1.7	1.0	89.0	spatial	attention_network_task	up	left	congruent	89	0.761	s588
97.468592	1.7	1.0	89.0	double	attention_network_task	down	left	incongruent	89	1.322	s588
100.078456	1.7	1.0	71.0	double	attention_network_task	up	right	congruent	71	0.78	s588
102.69	1.7	1.0	89.0	double	attention_network_task	up	left	incongruent	89	0.622	s588
105.298864	1.7	1.0	89.0	spatial	attention_network_task	up	left	incongruent	89	0.58	s588
107.906864	1.7	1.0	71.0	double	attention_network_task	down	right	incongruent	71	0.795	s588
110.514864	1.7	1.0	71.0	spatial	attention_network_task	up	right	incongruent	71	0.796	s588
113.122864	1.7	1.0	89.0	double	attention_network_task	down	left	congruent	89	0.876	s588
115.736728	1.7	1.0	71.0	spatial	attention_network_task	up	right	incongruent	71	0.595	s588
118.343864	1.7	1.0	89.0	spatial	attention_network_task	down	left	incongruent	89	0.734	s588
120.95259200000001	1.7	1.0	71.0	spatial	attention_network_task	down	right	incongruent	71	0.703	s588
123.561	1.7	1.0	89.0	double	attention_network_task	down	left	incongruent	89	0.801	s588
126.168864	1.7	1.0	89.0	double	attention_network_task	up	left	congruent	89	0.768	s588
128.782	1.7	1.0	71.0	spatial	attention_network_task	up	right	congruent	71	0.56	s588
131.390864	1.7	1.0	89.0	double	attention_network_task	up	left	incongruent	89	0.546	s588
133.99904800000002	1.7	1.0	71.0	spatial	attention_network_task	down	right	congruent	71	0.757	s588
136.613728	1.7	1.0	71.0	double	attention_network_task	up	right	congruent	71	0.752	s588
139.228864	1.7	1.0	89.0	double	attention_network_task	down	left	congruent	89	0.727	s588
141.839	1.7	1.0	71.0	double	attention_network_task	down	right	incongruent	71	0.768	s588
144.446864	1.7	1.0	89.0	spatial	attention_network_task	down	left	incongruent	89	0.713	s588
147.055	1.7	1.0	71.0	double	attention_network_task	up	right	congruent	71	0.677	s588
149.662864	1.7	1.0	89.0	spatial	attention_network_task	down	left	incongruent	89	0.787	s588
152.270728	1.7	1.0	71.0	double	attention_network_task	up	right	incongruent	71	1.111	s588
154.878728	1.7	1.0	71.0	spatial	attention_network_task	down	right	incongruent	71	0.61	s588
157.487864	1.7	1.0	71.0	double	attention_network_task	down	right	congruent	71	0.65	s588
160.098	1.7	1.0	71.0	double	attention_network_task	up	right	incongruent	71	1.118	s588
162.708864	1.7	1.0	89.0	double	attention_network_task	down	left	incongruent	89	1.083	s588
165.322	1.7	1.0	89.0	spatial	attention_network_task	up	left	congruent	89	1.064	s588
167.93072800000002	1.7	1.0	89.0	double	attention_network_task	down	left	congruent	89	0.811	s588
181.057	1.7	1.0	89.0	spatial	attention_network_task	down	left	incongruent	89	0.863	s588
183.665	1.7	1.0	71.0	spatial	attention_network_task	down	right	incongruent	71	0.602	s588
186.272864	1.7	1.0	89.0	spatial	attention_network_task	down	left	congruent	89	0.641	s588
188.880728	1.7	1.0	71.0	spatial	attention_network_task	down	right	congruent	71	0.635	s588
191.488592	1.7	1.0	89.0	double	attention_network_task	down	left	incongruent	89	0.705	s588
194.097	1.7	1.0	89.0	double	attention_network_task	up	left	congruent	89	0.96	s588
196.706864	1.7	1.0	71.0	double	attention_network_task	up	right	congruent	71	0.739	s588
199.318864	1.7	1.0	89.0	spatial	attention_network_task	down	left	congruent	89	1.348	s588
201.927	1.7	1.0	89.0	double	attention_network_task	down	left	congruent	89	0.691	s588
204.53759200000002	1.7	1.0	71.0	double	attention_network_task	up	right	incongruent	71	0.79	s588
207.147456	1.7	1.0	89.0	spatial	attention_network_task	down	left	congruent	89	0.713	s588
209.760864	1.7	1.0	71.0	spatial	attention_network_task	down	right	congruent	71	0.653	s588
212.369864	1.7	1.0	71.0	spatial	attention_network_task	up	right	congruent	71	0.687	s588
214.978	1.7	1.0	89.0	spatial	attention_network_task	down	left	incongruent	89	0.797	s588
217.586	1.7	1.0	71.0	double	attention_network_task	up	right	congruent	71	0.922	s588
220.193864	1.7	1.0	71.0	double	attention_network_task	down	right	congruent	71	0.836	s588
222.802	1.7	1.0	71.0	double	attention_network_task	up	right	congruent	71	0.777	s588
225.409864	1.7	1.0	89.0	double	attention_network_task	down	left	congruent	89	0.67	s588
228.018	1.7	1.0	71.0	double	attention_network_task	down	right	congruent	71	0.6	s588
230.62659200000002	1.7	1.0	71.0	spatial	attention_network_task	up	right	congruent	71	0.571	s588
233.235	1.7	1.0	89.0	spatial	attention_network_task	up	left	incongruent	89	0.736	s588
235.842184	1.7	1.0	71.0	double	attention_network_task	down	right	incongruent	71	0.938	s588
238.45032	1.7	1.0	89.0	spatial	attention_network_task	down	left	congruent	89	0.749	s588
241.059	1.7	1.0	89.0	spatial	attention_network_task	down	left	congruent	89	0.632	s588
243.666864	1.7	1.0	71.0	spatial	attention_network_task	up	right	congruent	71	0.572	s588
246.278864	1.7	1.0	89.0	double	attention_network_task	up	left	incongruent	89	0.517	s588
248.888864	1.7	1.0	89.0	double	attention_network_task	up	left	incongruent	89	0.588	s588
251.497	1.7	1.0	71.0	double	attention_network_task	down	right	incongruent	71	0.855	s588
254.104864	1.7	1.0	89.0	spatial	attention_network_task	up	left	incongruent	89	0.632	s588
256.712048	1.7	1.0	71.0	spatial	attention_network_task	up	right	incongruent	71	0.699	s588
259.32086400000003	1.7	1.0	71.0	double	attention_network_task	up	right	incongruent	71	0.71	s588
261.928592	1.7	1.0	89.0	double	attention_network_task	down	left	incongruent	89	0.892	s588
264.536048	1.7	1.0	71.0	spatial	attention_network_task	up	right	incongruent	71	0.645	s588
267.144864	1.7	1.0	71.0	double	attention_network_task	down	right	incongruent	71	0.986	s588
269.752728	1.7	1.0	71.0	double	attention_network_task	up	right	incongruent	71	0.618	s588
272.361728	1.7	1.0	71.0	double	attention_network_task	down	right	incongruent	71	0.802	s588
274.97	1.7	1.0	71.0	double	attention_network_task	up	right	congruent	71	0.594	s588
277.578	1.7	1.0	71.0	spatial	attention_network_task	down	right	incongruent	71	0.681	s588
280.185728	1.7	1.0	71.0	spatial	attention_network_task	down	right	congruent	71	0.514	s588
282.794	1.7	1.0	89.0	spatial	attention_network_task	up	left	congruent	89	0.526	s588
285.405	1.7	1.0	71.0	spatial	attention_network_task	down	right	incongruent	71	0.604	s588
288.014728	1.7	1.0	71.0	double	attention_network_task	down	right	congruent	71	0.609	s588
290.624	1.7	1.0	71.0	spatial	attention_network_task	up	right	incongruent	71	0.924	s588
293.231864	1.7	1.0	89.0	spatial	attention_network_task	up	left	congruent	89	0.975	s588
295.839728	1.7	1.0	89.0	spatial	attention_network_task	up	left	congruent	89	0.537	s588
298.448	1.7	1.0	71.0	spatial	attention_network_task	down	right	congruent	71	0.576	s588
301.057	1.7	1.0	89.0	double	attention_network_task	down	left	incongruent	89	0.724	s588
303.669	1.7	1.0	89.0	double	attention_network_task	up	left	congruent	89	0.811	s588
306.278	1.7	1.0	89.0	spatial	attention_network_task	up	left	incongruent	89	0.598	s588
308.89	1.7	1.0	89.0	double	attention_network_task	down	left	congruent	89	0.683	s588
311.499	1.7	1.0	89.0	spatial	attention_network_task	up	left	incongruent	89	0.656	s588
314.106728	1.7	1.0	89.0	double	attention_network_task	down	left	congruent	89	0.572	s588
316.716864	1.7	1.0	71.0	double	attention_network_task	up	right	incongruent	71	0.819	s588
319.327912	1.7	1.0	89.0	double	attention_network_task	up	left	incongruent	89	0.585	s588
321.936728	1.7	1.0	71.0	spatial	attention_network_task	up	right	congruent	71	0.507	s588
324.549864	1.7	1.0	71.0	spatial	attention_network_task	down	right	congruent	71	0.609	s588
327.157864	1.7	1.0	89.0	double	attention_network_task	up	left	congruent	89	0.662	s588
329.766	1.7	1.0	71.0	double	attention_network_task	down	right	congruent	71	0.684	s588
332.375	1.7	1.0	89.0	spatial	attention_network_task	down	left	incongruent	89	0.593	s588
334.983	1.7	1.0	89.0	spatial	attention_network_task	down	left	congruent	89	0.848	s588
337.595	1.7	1.0	89.0	double	attention_network_task	up	left	incongruent	89	1.019	s588
340.203864	1.7	1.0	71.0	spatial	attention_network_task	up	right	incongruent	71	0.582	s588
342.811728	1.7	1.0	71.0	double	attention_network_task	down	right	incongruent	71	0.781	s588
345.420864	1.7	1.0	89.0	spatial	attention_network_task	up	left	congruent	89	0.792	s588
