onset	duration	block_duration	movement_onset	planning	condition	exp_stage	experiment_exp_id	key_press	problem_id	response_time	trial_id	trial_type	worker_id	junk
3.014	5.895	5.895	8.909	1	UA_with_intermediate	practice	ward_and_allport	71	0.0	5.895	to_hand	poldrack-single-stim	s616	False
8.91	0.1	0.563	9.473	0	UA_with_intermediate	practice	ward_and_allport	82	0.0	0.563	to_board	poldrack-single-stim	s616	False
9.475	0.1	0.838	10.313	0	UA_with_intermediate	practice	ward_and_allport	71	0.0	0.838	to_hand	poldrack-single-stim	s616	False
10.314	0.1	0.961	11.275	0	UA_with_intermediate	practice	ward_and_allport	89	0.0	0.961	to_board	poldrack-single-stim	s616	False
11.277	0.1	0.564	11.841	0	UA_with_intermediate	practice	ward_and_allport	82	0.0	0.564	to_hand	poldrack-single-stim	s616	False
11.842	0.1	0.411	12.253	0	UA_with_intermediate	practice	ward_and_allport	89	0.0	0.411	to_board	poldrack-single-stim	s616	False
12.258	1.0	2.5	12.257	0	UA_with_intermediate	practice	ward_and_allport	-1	0.0	n/a	feedback	poldrack-single-stim	s616	False
14.759	7.829	7.829	22.588	1	UA_with_intermediate	practice	ward_and_allport	89	1.0	7.829	to_hand	poldrack-single-stim	s616	False
22.589	0.1	0.335	22.924	0	UA_with_intermediate	practice	ward_and_allport	82	1.0	0.335	to_board	poldrack-single-stim	s616	False
22.926	0.1	0.693	23.619	0	UA_with_intermediate	practice	ward_and_allport	71	1.0	0.693	to_hand	poldrack-single-stim	s616	False
23.619	0.1	0.267	23.886	0	UA_with_intermediate	practice	ward_and_allport	89	1.0	0.267	to_board	poldrack-single-stim	s616	False
23.888	0.1	0.612	24.5	0	UA_with_intermediate	practice	ward_and_allport	82	1.0	0.612	to_hand	poldrack-single-stim	s616	False
24.5	0.1	0.284	24.784	0	UA_with_intermediate	practice	ward_and_allport	89	1.0	0.284	to_board	poldrack-single-stim	s616	False
24.79	1.0	2.1	24.789	0	UA_with_intermediate	practice	ward_and_allport	-1	1.0	n/a	feedback	poldrack-single-stim	s616	False
26.891	9.014	9.014	35.905	1	UA_without_intermediate	practice	ward_and_allport	82	2.0	9.014	to_hand	poldrack-single-stim	s616	False
35.907	0.1	0.253	36.16	0	UA_without_intermediate	practice	ward_and_allport	89	2.0	0.253	to_board	poldrack-single-stim	s616	False
36.161	0.1	0.355	36.516	0	UA_without_intermediate	practice	ward_and_allport	71	2.0	0.355	to_hand	poldrack-single-stim	s616	False
36.517	0.1	0.305	36.822	0	UA_without_intermediate	practice	ward_and_allport	89	2.0	0.305	to_board	poldrack-single-stim	s616	False
36.823	0.1	0.386	37.209	0	UA_without_intermediate	practice	ward_and_allport	71	2.0	0.386	to_hand	poldrack-single-stim	s616	False
37.211	0.1	0.281	37.492	0	UA_without_intermediate	practice	ward_and_allport	89	2.0	0.281	to_board	poldrack-single-stim	s616	False
37.496	1.0	2.2	37.495	0	UA_without_intermediate	practice	ward_and_allport	-1	2.0	n/a	feedback	poldrack-single-stim	s616	False
39.698	6.605	6.605	46.303	1	UA_without_intermediate	practice	ward_and_allport	71	3.0	6.605	to_hand	poldrack-single-stim	s616	False
46.304	0.1	0.344	46.648	0	UA_without_intermediate	practice	ward_and_allport	89	3.0	0.344	to_board	poldrack-single-stim	s616	False
46.651	0.1	0.434	47.085	0	UA_without_intermediate	practice	ward_and_allport	82	3.0	0.434	to_hand	poldrack-single-stim	s616	False
47.086	0.1	0.378	47.464	0	UA_without_intermediate	practice	ward_and_allport	89	3.0	0.378	to_board	poldrack-single-stim	s616	False
47.466	0.1	0.371	47.837	0	UA_without_intermediate	practice	ward_and_allport	71	3.0	0.371	to_hand	poldrack-single-stim	s616	False
47.838	0.1	0.299	48.137	0	UA_without_intermediate	practice	ward_and_allport	89	3.0	0.299	to_board	poldrack-single-stim	s616	False
48.144	1.0	2.0	48.143	0	UA_without_intermediate	practice	ward_and_allport	-1	3.0	n/a	feedback	poldrack-single-stim	s616	False
52.15	10.303	10.303	62.453	1	PA_with_intermediate	test	ward_and_allport	71	0.0	10.303	to_hand	poldrack-single-stim	s616	False
62.453	0.1	0.357	62.81	0	PA_with_intermediate	test	ward_and_allport	89	0.0	0.357	to_board	poldrack-single-stim	s616	False
62.811	0.1	0.788	63.599	0	PA_with_intermediate	test	ward_and_allport	71	0.0	0.788	to_hand	poldrack-single-stim	s616	False
63.601	0.1	0.319	63.92	0	PA_with_intermediate	test	ward_and_allport	82	0.0	0.319	to_board	poldrack-single-stim	s616	False
63.921	0.1	0.807	64.728	0	PA_with_intermediate	test	ward_and_allport	89	0.0	0.807	to_hand	poldrack-single-stim	s616	False
64.729	0.1	0.527	65.256	0	PA_with_intermediate	test	ward_and_allport	82	0.0	0.527	to_board	poldrack-single-stim	s616	False
65.259	1.0	4.176	65.258	0	PA_with_intermediate	test	ward_and_allport	-1	0.0	n/a	feedback	poldrack-single-stim	s616	False
69.436	9.765	9.765	79.201	1	PA_with_intermediate	test	ward_and_allport	89	1.0	9.765	to_hand	poldrack-single-stim	s616	False
79.202	0.1	0.495	79.697	0	PA_with_intermediate	test	ward_and_allport	82	1.0	0.495	to_board	poldrack-single-stim	s616	False
79.699	0.1	1.741	81.44	0	PA_with_intermediate	test	ward_and_allport	89	1.0	1.741	to_hand	poldrack-single-stim	s616	False
81.44	0.1	0.44	81.88	0	PA_with_intermediate	test	ward_and_allport	71	1.0	0.44	to_board	poldrack-single-stim	s616	False
81.883	0.1	1.269	83.152	0	PA_with_intermediate	test	ward_and_allport	82	1.0	1.269	to_hand	poldrack-single-stim	s616	False
83.153	0.1	0.261	83.414	0	PA_with_intermediate	test	ward_and_allport	89	1.0	0.261	to_board	poldrack-single-stim	s616	False
83.419	1.0	3.36	83.418	0	PA_with_intermediate	test	ward_and_allport	-1	1.0	n/a	feedback	poldrack-single-stim	s616	False
86.78	18.646	18.646	105.426	1	PA_with_intermediate	test	ward_and_allport	89	2.0	18.646	to_hand	poldrack-single-stim	s616	False
105.427	0.1	0.316	105.743	0	PA_with_intermediate	test	ward_and_allport	71	2.0	0.316	to_board	poldrack-single-stim	s616	False
105.746	0.1	0.881	106.627	0	PA_with_intermediate	test	ward_and_allport	89	2.0	0.881	to_hand	poldrack-single-stim	s616	False
106.627	0.1	0.47	107.097	0	PA_with_intermediate	test	ward_and_allport	82	2.0	0.47	to_board	poldrack-single-stim	s616	False
107.099	0.1	2.104	109.203	0	PA_with_intermediate	test	ward_and_allport	71	2.0	2.104	to_hand	poldrack-single-stim	s616	False
109.204	0.1	0.307	109.511	0	PA_with_intermediate	test	ward_and_allport	82	2.0	0.307	to_board	poldrack-single-stim	s616	False
109.515	1.0	2.0	109.514	0	PA_with_intermediate	test	ward_and_allport	-1	2.0	n/a	feedback	poldrack-single-stim	s616	False
111.517	15.716	15.716	127.233	1	PA_without_intermediate	test	ward_and_allport	89	3.0	15.716	to_hand	poldrack-single-stim	s616	False
127.234	0.1	0.503	127.737	0	PA_without_intermediate	test	ward_and_allport	82	3.0	0.503	to_board	poldrack-single-stim	s616	False
127.74	0.1	0.539	128.279	0	PA_without_intermediate	test	ward_and_allport	89	3.0	0.539	to_hand	poldrack-single-stim	s616	False
128.279	0.1	0.455	128.734	0	PA_without_intermediate	test	ward_and_allport	71	3.0	0.455	to_board	poldrack-single-stim	s616	False
128.736	0.1	0.502	129.238	0	PA_without_intermediate	test	ward_and_allport	89	3.0	0.502	to_hand	poldrack-single-stim	s616	False
129.24	0.1	0.361	129.601	0	PA_without_intermediate	test	ward_and_allport	82	3.0	0.361	to_board	poldrack-single-stim	s616	False
129.606	1.0	2.408	129.605	0	PA_without_intermediate	test	ward_and_allport	-1	3.0	n/a	feedback	poldrack-single-stim	s616	False
132.017	6.577	6.577	138.594	1	PA_with_intermediate	test	ward_and_allport	71	4.0	6.577	to_hand	poldrack-single-stim	s616	False
138.594	0.1	0.264	138.858	0	PA_with_intermediate	test	ward_and_allport	82	4.0	0.264	to_board	poldrack-single-stim	s616	False
138.86	0.1	0.46	139.32	0	PA_with_intermediate	test	ward_and_allport	71	4.0	0.46	to_hand	poldrack-single-stim	s616	False
139.321	0.1	0.321	139.642	0	PA_with_intermediate	test	ward_and_allport	89	4.0	0.321	to_board	poldrack-single-stim	s616	False
139.644	0.1	0.734	140.378	0	PA_with_intermediate	test	ward_and_allport	82	4.0	0.734	to_hand	poldrack-single-stim	s616	False
140.379	0.1	0.315	140.694	0	PA_with_intermediate	test	ward_and_allport	71	4.0	0.315	to_board	poldrack-single-stim	s616	False
140.698	1.0	2.816	140.697	0	PA_with_intermediate	test	ward_and_allport	-1	4.0	n/a	feedback	poldrack-single-stim	s616	False
143.516	13.422	13.422	156.938	1	PA_without_intermediate	test	ward_and_allport	71	5.0	13.422	to_hand	poldrack-single-stim	s616	False
156.94	0.1	0.358	157.298	0	PA_without_intermediate	test	ward_and_allport	89	5.0	0.358	to_board	poldrack-single-stim	s616	False
157.301	0.1	0.365	157.666	0	PA_without_intermediate	test	ward_and_allport	71	5.0	0.365	to_hand	poldrack-single-stim	s616	False
157.667	0.1	0.362	158.029	0	PA_without_intermediate	test	ward_and_allport	82	5.0	0.362	to_board	poldrack-single-stim	s616	False
158.031	0.1	0.351	158.382	0	PA_without_intermediate	test	ward_and_allport	71	5.0	0.351	to_hand	poldrack-single-stim	s616	False
158.383	0.1	0.323	158.706	0	PA_without_intermediate	test	ward_and_allport	89	5.0	0.323	to_board	poldrack-single-stim	s616	False
158.709	1.0	3.088	158.708	0	PA_without_intermediate	test	ward_and_allport	-1	5.0	n/a	feedback	poldrack-single-stim	s616	False
161.8	16.486	16.486	178.286	1	PA_without_intermediate	test	ward_and_allport	82	6.0	16.486	to_hand	poldrack-single-stim	s616	False
178.287	0.1	0.349	178.636	0	PA_without_intermediate	test	ward_and_allport	89	6.0	0.349	to_board	poldrack-single-stim	s616	False
178.638	0.1	0.517	179.155	0	PA_without_intermediate	test	ward_and_allport	82	6.0	0.517	to_hand	poldrack-single-stim	s616	False
179.156	0.1	0.482	179.638	0	PA_without_intermediate	test	ward_and_allport	71	6.0	0.482	to_board	poldrack-single-stim	s616	False
179.64	0.1	1.081	180.721	0	PA_without_intermediate	test	ward_and_allport	82	6.0	1.081	to_hand	poldrack-single-stim	s616	False
180.722	0.1	0.407	181.129	0	PA_without_intermediate	test	ward_and_allport	89	6.0	0.407	to_board	poldrack-single-stim	s616	False
181.133	1.0	2.136	181.132	0	PA_without_intermediate	test	ward_and_allport	-1	6.0	n/a	feedback	poldrack-single-stim	s616	False
183.271	10.839	10.839	194.11	1	PA_without_intermediate	test	ward_and_allport	89	7.0	10.839	to_hand	poldrack-single-stim	s616	False
194.112	0.1	0.391	194.503	0	PA_without_intermediate	test	ward_and_allport	82	7.0	0.391	to_board	poldrack-single-stim	s616	False
194.505	0.1	1.263	195.768	0	PA_without_intermediate	test	ward_and_allport	89	7.0	1.263	to_hand	poldrack-single-stim	s616	False
195.769	0.1	0.364	196.133	0	PA_without_intermediate	test	ward_and_allport	82	7.0	0.364	to_board	poldrack-single-stim	s616	False
196.135	0.1	0.725	196.86	0	PA_without_intermediate	test	ward_and_allport	89	7.0	0.725	to_hand	poldrack-single-stim	s616	False
196.861	0.1	0.313	197.174	0	PA_without_intermediate	test	ward_and_allport	71	7.0	0.313	to_board	poldrack-single-stim	s616	False
197.179	1.0	7.168	197.178	0	PA_without_intermediate	test	ward_and_allport	-1	7.0	n/a	feedback	poldrack-single-stim	s616	False
204.35	8.358	8.358	212.708	1	PA_without_intermediate	test	ward_and_allport	89	8.0	8.358	to_hand	poldrack-single-stim	s616	False
212.708	0.1	0.334	213.042	0	PA_without_intermediate	test	ward_and_allport	71	8.0	0.334	to_board	poldrack-single-stim	s616	False
213.045	0.1	0.591	213.636	0	PA_without_intermediate	test	ward_and_allport	89	8.0	0.591	to_hand	poldrack-single-stim	s616	False
213.637	0.1	0.318	213.955	0	PA_without_intermediate	test	ward_and_allport	82	8.0	0.318	to_board	poldrack-single-stim	s616	False
213.958	0.1	0.581	214.539	0	PA_without_intermediate	test	ward_and_allport	89	8.0	0.581	to_hand	poldrack-single-stim	s616	False
214.539	0.1	0.293	214.832	0	PA_without_intermediate	test	ward_and_allport	71	8.0	0.293	to_board	poldrack-single-stim	s616	False
214.837	1.0	2.816	214.836	0	PA_without_intermediate	test	ward_and_allport	-1	8.0	n/a	feedback	poldrack-single-stim	s616	False
217.656	18.79	18.79	236.446	1	PA_with_intermediate	test	ward_and_allport	82	9.0	18.79	to_hand	poldrack-single-stim	s616	False
236.447	0.1	0.424	236.871	0	PA_with_intermediate	test	ward_and_allport	71	9.0	0.424	to_board	poldrack-single-stim	s616	False
236.873	0.1	0.383	237.256	0	PA_with_intermediate	test	ward_and_allport	82	9.0	0.383	to_hand	poldrack-single-stim	s616	False
237.257	0.1	0.43	237.687	0	PA_with_intermediate	test	ward_and_allport	89	9.0	0.43	to_board	poldrack-single-stim	s616	False
237.69	0.1	0.782	238.472	0	PA_with_intermediate	test	ward_and_allport	71	9.0	0.782	to_hand	poldrack-single-stim	s616	False
238.473	0.1	0.349	238.822	0	PA_with_intermediate	test	ward_and_allport	89	9.0	0.349	to_board	poldrack-single-stim	s616	False
238.829	1.0	2.952	238.828	0	PA_with_intermediate	test	ward_and_allport	-1	9.0	n/a	feedback	poldrack-single-stim	s616	False
241.784	19.342	19.342	261.126	1	PA_with_intermediate	test	ward_and_allport	82	10.0	19.342	to_hand	poldrack-single-stim	s616	False
261.127	0.1	0.31	261.437	0	PA_with_intermediate	test	ward_and_allport	71	10.0	0.31	to_board	poldrack-single-stim	s616	False
261.442	0.1	0.5	261.942	0	PA_with_intermediate	test	ward_and_allport	82	10.0	0.5	to_hand	poldrack-single-stim	s616	False
261.943	0.1	0.323	262.266	0	PA_with_intermediate	test	ward_and_allport	89	10.0	0.323	to_board	poldrack-single-stim	s616	False
262.269	0.1	0.57	262.839	0	PA_with_intermediate	test	ward_and_allport	71	10.0	0.57	to_hand	poldrack-single-stim	s616	False
262.84	0.1	0.361	263.201	0	PA_with_intermediate	test	ward_and_allport	82	10.0	0.361	to_board	poldrack-single-stim	s616	False
263.207	1.0	2.136	263.206	0	PA_with_intermediate	test	ward_and_allport	-1	10.0	n/a	feedback	poldrack-single-stim	s616	False
265.347	8.605	8.605	273.952	1	PA_without_intermediate	test	ward_and_allport	71	11.0	8.605	to_hand	poldrack-single-stim	s616	False
273.954	0.1	0.332	274.286	0	PA_without_intermediate	test	ward_and_allport	89	11.0	0.332	to_board	poldrack-single-stim	s616	False
274.29	0.1	0.524	274.814	0	PA_without_intermediate	test	ward_and_allport	71	11.0	0.524	to_hand	poldrack-single-stim	s616	False
274.816	0.1	0.315	275.131	0	PA_without_intermediate	test	ward_and_allport	82	11.0	0.315	to_board	poldrack-single-stim	s616	False
275.134	0.1	0.351	275.485	0	PA_without_intermediate	test	ward_and_allport	71	11.0	0.351	to_hand	poldrack-single-stim	s616	False
275.486	0.1	0.272	275.758	0	PA_without_intermediate	test	ward_and_allport	89	11.0	0.272	to_board	poldrack-single-stim	s616	False
275.763	1.0	2.68	275.762	0	PA_without_intermediate	test	ward_and_allport	-1	11.0	n/a	feedback	poldrack-single-stim	s616	False
278.446	16.36	16.36	294.806	1	PA_without_intermediate	test	ward_and_allport	82	12.0	16.36	to_hand	poldrack-single-stim	s616	False
294.807	0.1	0.346	295.153	0	PA_without_intermediate	test	ward_and_allport	71	12.0	0.346	to_board	poldrack-single-stim	s616	False
295.156	0.1	0.388	295.544	0	PA_without_intermediate	test	ward_and_allport	82	12.0	0.388	to_hand	poldrack-single-stim	s616	False
295.545	0.1	0.376	295.921	0	PA_without_intermediate	test	ward_and_allport	89	12.0	0.376	to_board	poldrack-single-stim	s616	False
295.925	0.1	0.397	296.322	0	PA_without_intermediate	test	ward_and_allport	82	12.0	0.397	to_hand	poldrack-single-stim	s616	False
296.323	0.1	0.352	296.675	0	PA_without_intermediate	test	ward_and_allport	71	12.0	0.352	to_board	poldrack-single-stim	s616	False
296.683	1.0	3.088	296.682	0	PA_without_intermediate	test	ward_and_allport	-1	12.0	n/a	feedback	poldrack-single-stim	s616	False
299.774	11.462	11.462	311.236	1	PA_with_intermediate	test	ward_and_allport	82	13.0	11.462	to_hand	poldrack-single-stim	s616	False
311.237	0.1	0.436	311.673	0	PA_with_intermediate	test	ward_and_allport	71	13.0	0.436	to_board	poldrack-single-stim	s616	False
311.677	0.1	0.543	312.22	0	PA_with_intermediate	test	ward_and_allport	82	13.0	0.543	to_hand	poldrack-single-stim	s616	False
312.221	0.1	0.312	312.533	0	PA_with_intermediate	test	ward_and_allport	89	13.0	0.312	to_board	poldrack-single-stim	s616	False
312.537	0.1	0.43	312.967	0	PA_with_intermediate	test	ward_and_allport	71	13.0	0.43	to_hand	poldrack-single-stim	s616	False
312.968	0.1	0.325	313.293	0	PA_with_intermediate	test	ward_and_allport	82	13.0	0.325	to_board	poldrack-single-stim	s616	False
313.301	1.0	2.0	313.3	0	PA_with_intermediate	test	ward_and_allport	-1	13.0	n/a	feedback	poldrack-single-stim	s616	False
315.304	8.952	8.952	324.256	1	PA_without_intermediate	test	ward_and_allport	71	14.0	8.952	to_hand	poldrack-single-stim	s616	False
324.257	0.1	0.41	324.667	0	PA_without_intermediate	test	ward_and_allport	82	14.0	0.41	to_board	poldrack-single-stim	s616	False
324.671	0.1	0.309	324.98	0	PA_without_intermediate	test	ward_and_allport	71	14.0	0.309	to_hand	poldrack-single-stim	s616	False
324.98	0.1	0.319	325.299	0	PA_without_intermediate	test	ward_and_allport	89	14.0	0.319	to_board	poldrack-single-stim	s616	False
325.302	0.1	0.322	325.624	0	PA_without_intermediate	test	ward_and_allport	71	14.0	0.322	to_hand	poldrack-single-stim	s616	False
325.625	0.1	0.285	325.91	0	PA_without_intermediate	test	ward_and_allport	82	14.0	0.285	to_board	poldrack-single-stim	s616	False
325.915	1.0	2.0	325.914	0	PA_without_intermediate	test	ward_and_allport	-1	14.0	n/a	feedback	poldrack-single-stim	s616	False
332.921	19.88	19.88	352.801	1	PA_without_intermediate	test	ward_and_allport	82	15.0	19.88	to_hand	poldrack-single-stim	s616	False
352.802	0.1	0.342	353.144	0	PA_without_intermediate	test	ward_and_allport	71	15.0	0.342	to_board	poldrack-single-stim	s616	False
353.147	0.1	0.298	353.445	0	PA_without_intermediate	test	ward_and_allport	82	15.0	0.298	to_hand	poldrack-single-stim	s616	False
353.446	0.1	0.952	354.398	0	PA_without_intermediate	test	ward_and_allport	71	15.0	0.952	to_board	poldrack-single-stim	s616	False
354.402	0.1	0.465	354.867	0	PA_without_intermediate	test	ward_and_allport	82	15.0	0.465	to_hand	poldrack-single-stim	s616	False
354.869	0.1	0.267	355.136	0	PA_without_intermediate	test	ward_and_allport	89	15.0	0.267	to_board	poldrack-single-stim	s616	False
355.141	1.0	2.0	355.14	0	PA_without_intermediate	test	ward_and_allport	-1	15.0	n/a	feedback	poldrack-single-stim	s616	False
357.145	6.969	6.969	364.114	1	PA_with_intermediate	test	ward_and_allport	89	16.0	6.969	to_hand	poldrack-single-stim	s616	False
364.115	0.1	0.3	364.415	0	PA_with_intermediate	test	ward_and_allport	71	16.0	0.3	to_board	poldrack-single-stim	s616	False
364.418	0.1	0.308	364.726	0	PA_with_intermediate	test	ward_and_allport	89	16.0	0.308	to_hand	poldrack-single-stim	s616	False
364.728	0.1	0.413	365.141	0	PA_with_intermediate	test	ward_and_allport	82	16.0	0.413	to_board	poldrack-single-stim	s616	False
365.144	0.1	2.56	367.704	0	PA_with_intermediate	test	ward_and_allport	71	16.0	2.56	to_hand	poldrack-single-stim	s616	False
367.705	0.1	0.219	367.924	0	PA_with_intermediate	test	ward_and_allport	89	16.0	0.219	to_board	poldrack-single-stim	s616	False
367.931	1.0	2.544	367.93	0	PA_with_intermediate	test	ward_and_allport	-1	16.0	n/a	feedback	poldrack-single-stim	s616	False
370.478	15.888	15.888	386.366	1	PA_without_intermediate	test	ward_and_allport	82	17.0	15.888	to_hand	poldrack-single-stim	s616	False
386.367	0.1	0.277	386.644	0	PA_without_intermediate	test	ward_and_allport	71	17.0	0.277	to_board	poldrack-single-stim	s616	False
386.648	0.1	0.398	387.046	0	PA_without_intermediate	test	ward_and_allport	82	17.0	0.398	to_hand	poldrack-single-stim	s616	False
387.048	0.1	0.33	387.378	0	PA_without_intermediate	test	ward_and_allport	89	17.0	0.33	to_board	poldrack-single-stim	s616	False
387.382	0.1	0.402	387.784	0	PA_without_intermediate	test	ward_and_allport	82	17.0	0.402	to_hand	poldrack-single-stim	s616	False
387.785	0.1	0.273	388.058	0	PA_without_intermediate	test	ward_and_allport	71	17.0	0.273	to_board	poldrack-single-stim	s616	False
388.064	1.0	2.272	388.063	0	PA_without_intermediate	test	ward_and_allport	-1	17.0	n/a	feedback	poldrack-single-stim	s616	False
390.339	9.638	9.638	399.977	1	PA_with_intermediate	test	ward_and_allport	82	18.0	9.638	to_hand	poldrack-single-stim	s616	False
399.978	0.1	0.317	400.295	0	PA_with_intermediate	test	ward_and_allport	89	18.0	0.317	to_board	poldrack-single-stim	s616	False
400.299	0.1	0.38	400.679	0	PA_with_intermediate	test	ward_and_allport	82	18.0	0.38	to_hand	poldrack-single-stim	s616	False
400.68	0.1	0.298	400.978	0	PA_with_intermediate	test	ward_and_allport	71	18.0	0.298	to_board	poldrack-single-stim	s616	False
400.982	0.1	0.332	401.314	0	PA_with_intermediate	test	ward_and_allport	89	18.0	0.332	to_hand	poldrack-single-stim	s616	False
401.315	0.1	0.32	401.635	0	PA_with_intermediate	test	ward_and_allport	82	18.0	0.32	to_board	poldrack-single-stim	s616	False
401.64	1.0	4.04	401.639	0	PA_with_intermediate	test	ward_and_allport	-1	18.0	n/a	feedback	poldrack-single-stim	s616	False
405.685	13.774	13.774	419.459	1	PA_with_intermediate	test	ward_and_allport	89	19.0	13.774	to_hand	poldrack-single-stim	s616	False
419.459	0.1	0.233	419.692	0	PA_with_intermediate	test	ward_and_allport	71	19.0	0.233	to_board	poldrack-single-stim	s616	False
419.696	0.1	0.291	419.987	0	PA_with_intermediate	test	ward_and_allport	89	19.0	0.291	to_hand	poldrack-single-stim	s616	False
419.988	0.1	0.407	420.395	0	PA_with_intermediate	test	ward_and_allport	82	19.0	0.407	to_board	poldrack-single-stim	s616	False
420.4	0.1	0.459	420.859	0	PA_with_intermediate	test	ward_and_allport	71	19.0	0.459	to_hand	poldrack-single-stim	s616	False
420.859	0.1	0.277	421.136	0	PA_with_intermediate	test	ward_and_allport	89	19.0	0.277	to_board	poldrack-single-stim	s616	False
421.142	1.0	2.272	421.141	0	PA_with_intermediate	test	ward_and_allport	-1	19.0	n/a	feedback	poldrack-single-stim	s616	False
423.417	13.757	13.757	437.174	1	PA_with_intermediate	test	ward_and_allport	82	20.0	13.757	to_hand	poldrack-single-stim	s616	False
437.176	0.1	0.233	437.409	0	PA_with_intermediate	test	ward_and_allport	89	20.0	0.233	to_board	poldrack-single-stim	s616	False
437.412	0.1	0.316	437.728	0	PA_with_intermediate	test	ward_and_allport	82	20.0	0.316	to_hand	poldrack-single-stim	s616	False
437.73	0.1	0.229	437.959	0	PA_with_intermediate	test	ward_and_allport	71	20.0	0.229	to_board	poldrack-single-stim	s616	False
437.962	0.1	0.517	438.479	0	PA_with_intermediate	test	ward_and_allport	89	20.0	0.517	to_hand	poldrack-single-stim	s616	False
438.48	0.1	0.364	438.844	0	PA_with_intermediate	test	ward_and_allport	82	20.0	0.364	to_board	poldrack-single-stim	s616	False
438.853	1.0	2.136	438.852	0	PA_with_intermediate	test	ward_and_allport	-1	20.0	n/a	feedback	poldrack-single-stim	s616	False
440.993	9.362	9.362	450.355	1	PA_with_intermediate	test	ward_and_allport	71	21.0	9.362	to_hand	poldrack-single-stim	s616	False
450.356	0.1	0.146	450.502	0	PA_with_intermediate	test	ward_and_allport	89	21.0	0.146	to_board	poldrack-single-stim	s616	False
450.506	0.1	0.52	451.026	0	PA_with_intermediate	test	ward_and_allport	71	21.0	0.52	to_hand	poldrack-single-stim	s616	False
451.027	0.1	0.206	451.233	0	PA_with_intermediate	test	ward_and_allport	82	21.0	0.206	to_board	poldrack-single-stim	s616	False
451.237	0.1	0.735	451.972	0	PA_with_intermediate	test	ward_and_allport	89	21.0	0.735	to_hand	poldrack-single-stim	s616	False
451.973	0.1	0.771	452.744	0	PA_with_intermediate	test	ward_and_allport	71	21.0	0.771	to_board	poldrack-single-stim	s616	False
452.752	1.0	2.0	452.751	0	PA_with_intermediate	test	ward_and_allport	-1	21.0	n/a	feedback	poldrack-single-stim	s616	False
454.756	16.386	16.386	471.142	1	PA_with_intermediate	test	ward_and_allport	82	22.0	16.386	to_hand	poldrack-single-stim	s616	False
471.143	0.1	0.189	471.332	0	PA_with_intermediate	test	ward_and_allport	89	22.0	0.189	to_board	poldrack-single-stim	s616	False
471.337	0.1	0.424	471.761	0	PA_with_intermediate	test	ward_and_allport	82	22.0	0.424	to_hand	poldrack-single-stim	s616	False
471.762	0.1	0.155	471.917	0	PA_with_intermediate	test	ward_and_allport	71	22.0	0.155	to_board	poldrack-single-stim	s616	False
471.922	0.1	0.503	472.425	0	PA_with_intermediate	test	ward_and_allport	89	22.0	0.503	to_hand	poldrack-single-stim	s616	False
472.426	0.1	0.168	472.594	0	PA_with_intermediate	test	ward_and_allport	71	22.0	0.168	to_board	poldrack-single-stim	s616	False
472.603	1.0	2.0	472.602	0	PA_with_intermediate	test	ward_and_allport	-1	22.0	n/a	feedback	poldrack-single-stim	s616	False
474.607	16.876	16.876	491.483	1	PA_without_intermediate	test	ward_and_allport	89	23.0	16.876	to_hand	poldrack-single-stim	s616	False
491.483	0.1	0.172	491.655	0	PA_without_intermediate	test	ward_and_allport	71	23.0	0.172	to_board	poldrack-single-stim	s616	False
491.66	0.1	0.406	492.066	0	PA_without_intermediate	test	ward_and_allport	89	23.0	0.406	to_hand	poldrack-single-stim	s616	False
492.067	0.1	0.235	492.302	0	PA_without_intermediate	test	ward_and_allport	71	23.0	0.235	to_board	poldrack-single-stim	s616	False
492.307	0.1	0.47	492.777	0	PA_without_intermediate	test	ward_and_allport	89	23.0	0.47	to_hand	poldrack-single-stim	s616	False
492.778	0.1	0.165	492.943	0	PA_without_intermediate	test	ward_and_allport	82	23.0	0.165	to_board	poldrack-single-stim	s616	False
492.95	1.0	2.408	492.949	0	PA_without_intermediate	test	ward_and_allport	-1	23.0	n/a	feedback	poldrack-single-stim	s616	False
495.364	8.107	8.107	503.471	1	PA_with_intermediate	test	ward_and_allport	71	24.0	8.107	to_hand	poldrack-single-stim	s616	False
503.471	0.1	0.14	503.611	0	PA_with_intermediate	test	ward_and_allport	89	24.0	0.14	to_board	poldrack-single-stim	s616	False
503.616	0.1	0.487	504.103	0	PA_with_intermediate	test	ward_and_allport	71	24.0	0.487	to_hand	poldrack-single-stim	s616	False
504.104	0.1	0.223	504.327	0	PA_with_intermediate	test	ward_and_allport	82	24.0	0.223	to_board	poldrack-single-stim	s616	False
504.332	0.1	0.465	504.797	0	PA_with_intermediate	test	ward_and_allport	89	24.0	0.465	to_hand	poldrack-single-stim	s616	False
504.798	0.1	0.178	504.976	0	PA_with_intermediate	test	ward_and_allport	82	24.0	0.178	to_board	poldrack-single-stim	s616	False
504.984	1.0	3.768	504.983	0	PA_with_intermediate	test	ward_and_allport	-1	24.0	n/a	feedback	poldrack-single-stim	s616	False
508.757	10.574	10.574	519.331	1	PA_with_intermediate	test	ward_and_allport	82	25.0	10.574	to_hand	poldrack-single-stim	s616	False
519.333	0.1	0.215	519.548	0	PA_with_intermediate	test	ward_and_allport	89	25.0	0.215	to_board	poldrack-single-stim	s616	False
519.553	0.1	1.02	520.573	0	PA_with_intermediate	test	ward_and_allport	82	25.0	1.02	to_hand	poldrack-single-stim	s616	False
520.574	0.1	0.071	520.645	0	PA_with_intermediate	test	ward_and_allport	71	25.0	0.071	to_board	poldrack-single-stim	s616	False
520.652	0.1	0.889	521.541	0	PA_with_intermediate	test	ward_and_allport	89	25.0	0.889	to_hand	poldrack-single-stim	s616	False
521.541	0.1	0.12	521.661	0	PA_with_intermediate	test	ward_and_allport	71	25.0	0.12	to_board	poldrack-single-stim	s616	False
521.672	1.0	2.68	521.671	0	PA_with_intermediate	test	ward_and_allport	-1	25.0	n/a	feedback	poldrack-single-stim	s616	False
524.357	21.444	21.444	545.801	1	PA_without_intermediate	test	ward_and_allport	82	26.0	21.444	to_hand	poldrack-single-stim	s616	False
545.802	0.1	0.18	545.982	0	PA_without_intermediate	test	ward_and_allport	89	26.0	0.18	to_board	poldrack-single-stim	s616	False
545.987	0.1	0.48	546.467	0	PA_without_intermediate	test	ward_and_allport	82	26.0	0.48	to_hand	poldrack-single-stim	s616	False
546.469	0.1	0.242	546.711	0	PA_without_intermediate	test	ward_and_allport	71	26.0	0.242	to_board	poldrack-single-stim	s616	False
546.716	0.1	0.665	547.381	0	PA_without_intermediate	test	ward_and_allport	82	26.0	0.665	to_hand	poldrack-single-stim	s616	False
547.382	0.1	0.165	547.547	0	PA_without_intermediate	test	ward_and_allport	89	26.0	0.165	to_board	poldrack-single-stim	s616	False
547.554	1.0	3.224	547.553	0	PA_without_intermediate	test	ward_and_allport	-1	26.0	n/a	feedback	poldrack-single-stim	s616	False
550.784	16.547	16.547	567.331	1	PA_without_intermediate	test	ward_and_allport	71	27.0	16.547	to_hand	poldrack-single-stim	s616	False
567.332	0.1	0.212	567.544	0	PA_without_intermediate	test	ward_and_allport	82	27.0	0.212	to_board	poldrack-single-stim	s616	False
567.55	0.1	0.415	567.965	0	PA_without_intermediate	test	ward_and_allport	71	27.0	0.415	to_hand	poldrack-single-stim	s616	False
567.966	0.1	0.194	568.16	0	PA_without_intermediate	test	ward_and_allport	82	27.0	0.194	to_board	poldrack-single-stim	s616	False
568.166	0.1	0.761	568.927	0	PA_without_intermediate	test	ward_and_allport	71	27.0	0.761	to_hand	poldrack-single-stim	s616	False
568.928	0.1	0.376	569.304	0	PA_without_intermediate	test	ward_and_allport	89	27.0	0.376	to_board	poldrack-single-stim	s616	False
569.311	1.0	3.36	569.31	0	PA_without_intermediate	test	ward_and_allport	-1	27.0	n/a	feedback	poldrack-single-stim	s616	False
