onset	duration	block_duration	movement_onset	planning	condition	exp_stage	experiment_exp_id	key_press	problem_id	response_time	trial_id	trial_type	worker_id	junk
3.006	6.028	6.028	9.034	1	UA_with_intermediate	practice	ward_and_allport	89	0.0	6.028	to_hand	poldrack-single-stim	s638	False
9.036	0.1	0.634	9.67	0	UA_with_intermediate	practice	ward_and_allport	82	0.0	0.634	to_board	poldrack-single-stim	s638	False
9.672	0.1	2.122	11.794	0	UA_with_intermediate	practice	ward_and_allport	71	0.0	2.122	to_hand	poldrack-single-stim	s638	False
11.796	0.1	0.27	12.066	0	UA_with_intermediate	practice	ward_and_allport	89	0.0	0.27	to_board	poldrack-single-stim	s638	False
12.068	0.1	2.849	14.917	0	UA_with_intermediate	practice	ward_and_allport	89	0.0	2.849	to_hand	poldrack-single-stim	s638	False
14.917	0.1	0.368	15.285	0	UA_with_intermediate	practice	ward_and_allport	71	0.0	0.368	to_board	poldrack-single-stim	s638	False
15.289	0.1	1.221	16.51	0	UA_with_intermediate	practice	ward_and_allport	82	0.0	1.221	to_hand	poldrack-single-stim	s638	False
16.511	0.1	0.529	17.04	0	UA_with_intermediate	practice	ward_and_allport	89	0.0	0.529	to_board	poldrack-single-stim	s638	False
17.043	0.1	0.58	17.623	0	UA_with_intermediate	practice	ward_and_allport	71	0.0	0.58	to_hand	poldrack-single-stim	s638	False
17.624	0.1	0.577	18.201	0	UA_with_intermediate	practice	ward_and_allport	82	0.0	0.577	to_board	poldrack-single-stim	s638	False
18.203	0.1	0.689	18.892	0	UA_with_intermediate	practice	ward_and_allport	71	0.0	0.689	to_hand	poldrack-single-stim	s638	False
18.893	0.1	0.501	19.394	0	UA_with_intermediate	practice	ward_and_allport	89	0.0	0.501	to_board	poldrack-single-stim	s638	False
19.396	0.1	0.615	20.011	0	UA_with_intermediate	practice	ward_and_allport	82	0.0	0.615	to_hand	poldrack-single-stim	s638	False
20.012	0.1	0.481	20.493	0	UA_with_intermediate	practice	ward_and_allport	89	0.0	0.481	to_board	poldrack-single-stim	s638	False
20.496	1.0	2.5	20.495	0	UA_with_intermediate	practice	ward_and_allport	-1	0.0	n/a	feedback	poldrack-single-stim	s638	False
22.999	2.555	2.555	25.554	1	UA_with_intermediate	practice	ward_and_allport	89	1.0	2.555	to_hand	poldrack-single-stim	s638	False
25.555	0.1	1.16	26.715	0	UA_with_intermediate	practice	ward_and_allport	82	1.0	1.16	to_board	poldrack-single-stim	s638	False
26.717	0.1	0.794	27.511	0	UA_with_intermediate	practice	ward_and_allport	71	1.0	0.794	to_hand	poldrack-single-stim	s638	False
27.512	0.1	0.786	28.298	0	UA_with_intermediate	practice	ward_and_allport	89	1.0	0.786	to_board	poldrack-single-stim	s638	False
28.301	0.1	0.793	29.094	0	UA_with_intermediate	practice	ward_and_allport	82	1.0	0.793	to_hand	poldrack-single-stim	s638	False
29.096	0.1	0.724	29.82	0	UA_with_intermediate	practice	ward_and_allport	89	1.0	0.724	to_board	poldrack-single-stim	s638	False
29.824	1.0	2.1	29.823	0	UA_with_intermediate	practice	ward_and_allport	-1	1.0	n/a	feedback	poldrack-single-stim	s638	False
31.925	2.682	2.682	34.607	1	UA_without_intermediate	practice	ward_and_allport	82	2.0	2.682	to_hand	poldrack-single-stim	s638	False
34.609	0.1	0.854	35.463	0	UA_without_intermediate	practice	ward_and_allport	89	2.0	0.854	to_board	poldrack-single-stim	s638	False
35.466	0.1	0.823	36.289	0	UA_without_intermediate	practice	ward_and_allport	71	2.0	0.823	to_hand	poldrack-single-stim	s638	False
36.29	0.1	0.507	36.797	0	UA_without_intermediate	practice	ward_and_allport	89	2.0	0.507	to_board	poldrack-single-stim	s638	False
36.799	0.1	0.679	37.478	0	UA_without_intermediate	practice	ward_and_allport	71	2.0	0.679	to_hand	poldrack-single-stim	s638	False
37.48	0.1	0.511	37.991	0	UA_without_intermediate	practice	ward_and_allport	89	2.0	0.511	to_board	poldrack-single-stim	s638	False
37.994	1.0	2.2	37.993	0	UA_without_intermediate	practice	ward_and_allport	-1	2.0	n/a	feedback	poldrack-single-stim	s638	False
40.197	2.207	2.207	42.404	1	UA_without_intermediate	practice	ward_and_allport	71	3.0	2.207	to_hand	poldrack-single-stim	s638	False
42.404	0.1	0.306	42.71	0	UA_without_intermediate	practice	ward_and_allport	89	3.0	0.306	to_board	poldrack-single-stim	s638	False
42.712	0.1	0.831	43.543	0	UA_without_intermediate	practice	ward_and_allport	82	3.0	0.831	to_hand	poldrack-single-stim	s638	False
43.544	0.1	0.458	44.002	0	UA_without_intermediate	practice	ward_and_allport	89	3.0	0.458	to_board	poldrack-single-stim	s638	False
44.005	0.1	0.647	44.652	0	UA_without_intermediate	practice	ward_and_allport	71	3.0	0.647	to_hand	poldrack-single-stim	s638	False
44.653	0.1	0.396	45.049	0	UA_without_intermediate	practice	ward_and_allport	89	3.0	0.396	to_board	poldrack-single-stim	s638	False
45.053	1.0	2.0	45.052	0	UA_without_intermediate	practice	ward_and_allport	-1	3.0	n/a	feedback	poldrack-single-stim	s638	False
49.058	3.875	3.875	52.933	1	PA_with_intermediate	test	ward_and_allport	89	0.0	3.875	to_hand	poldrack-single-stim	s638	False
52.934	0.1	0.445	53.379	0	PA_with_intermediate	test	ward_and_allport	71	0.0	0.445	to_board	poldrack-single-stim	s638	False
53.382	0.1	0.318	53.7	0	PA_with_intermediate	test	ward_and_allport	89	0.0	0.318	to_hand	poldrack-single-stim	s638	False
53.702	0.1	0.452	54.154	0	PA_with_intermediate	test	ward_and_allport	82	0.0	0.452	to_board	poldrack-single-stim	s638	False
54.157	0.1	0.421	54.578	0	PA_with_intermediate	test	ward_and_allport	71	0.0	0.421	to_hand	poldrack-single-stim	s638	False
54.579	0.1	0.51	55.089	0	PA_with_intermediate	test	ward_and_allport	82	0.0	0.51	to_board	poldrack-single-stim	s638	False
55.093	1.0	4.176	55.092	0	PA_with_intermediate	test	ward_and_allport	-1	0.0	n/a	feedback	poldrack-single-stim	s638	False
59.272	3.012	3.012	62.284	1	PA_with_intermediate	test	ward_and_allport	89	1.0	3.012	to_hand	poldrack-single-stim	s638	False
62.286	0.1	0.305	62.591	0	PA_with_intermediate	test	ward_and_allport	71	1.0	0.305	to_board	poldrack-single-stim	s638	False
62.593	0.1	0.306	62.899	0	PA_with_intermediate	test	ward_and_allport	89	1.0	0.306	to_hand	poldrack-single-stim	s638	False
62.901	0.1	0.328	63.229	0	PA_with_intermediate	test	ward_and_allport	82	1.0	0.328	to_board	poldrack-single-stim	s638	False
63.233	0.1	0.339	63.572	0	PA_with_intermediate	test	ward_and_allport	71	1.0	0.339	to_hand	poldrack-single-stim	s638	False
63.574	0.1	0.273	63.847	0	PA_with_intermediate	test	ward_and_allport	89	1.0	0.273	to_board	poldrack-single-stim	s638	False
63.851	1.0	3.36	63.85	0	PA_with_intermediate	test	ward_and_allport	-1	1.0	n/a	feedback	poldrack-single-stim	s638	False
67.215	2.61	2.61	69.825	1	PA_with_intermediate	test	ward_and_allport	89	2.0	2.61	to_hand	poldrack-single-stim	s638	False
69.825	0.1	0.39	70.215	0	PA_with_intermediate	test	ward_and_allport	82	2.0	0.39	to_board	poldrack-single-stim	s638	False
70.219	0.1	0.428	70.647	0	PA_with_intermediate	test	ward_and_allport	89	2.0	0.428	to_hand	poldrack-single-stim	s638	False
70.647	0.1	0.326	70.973	0	PA_with_intermediate	test	ward_and_allport	71	2.0	0.326	to_board	poldrack-single-stim	s638	False
70.976	0.1	0.382	71.358	0	PA_with_intermediate	test	ward_and_allport	82	2.0	0.382	to_hand	poldrack-single-stim	s638	False
71.359	0.1	0.326	71.685	0	PA_with_intermediate	test	ward_and_allport	71	2.0	0.326	to_board	poldrack-single-stim	s638	False
71.689	1.0	2.0	71.688	0	PA_with_intermediate	test	ward_and_allport	-1	2.0	n/a	feedback	poldrack-single-stim	s638	False
73.691	3.465	3.465	77.156	1	PA_without_intermediate	test	ward_and_allport	82	3.0	3.465	to_hand	poldrack-single-stim	s638	False
77.157	0.1	0.517	77.674	0	PA_without_intermediate	test	ward_and_allport	89	3.0	0.517	to_board	poldrack-single-stim	s638	False
77.677	0.1	2.363	80.04	0	PA_without_intermediate	test	ward_and_allport	82	3.0	2.363	to_hand	poldrack-single-stim	s638	False
80.042	0.1	0.549	80.591	0	PA_without_intermediate	test	ward_and_allport	71	3.0	0.549	to_board	poldrack-single-stim	s638	False
80.594	0.1	0.798	81.392	0	PA_without_intermediate	test	ward_and_allport	82	3.0	0.798	to_hand	poldrack-single-stim	s638	False
81.393	0.1	0.501	81.894	0	PA_without_intermediate	test	ward_and_allport	89	3.0	0.501	to_board	poldrack-single-stim	s638	False
81.898	1.0	2.408	81.897	0	PA_without_intermediate	test	ward_and_allport	-1	3.0	n/a	feedback	poldrack-single-stim	s638	False
84.311	2.641	2.641	86.952	1	PA_with_intermediate	test	ward_and_allport	89	4.0	2.641	to_hand	poldrack-single-stim	s638	False
86.954	0.1	0.507	87.461	0	PA_with_intermediate	test	ward_and_allport	82	4.0	0.507	to_board	poldrack-single-stim	s638	False
87.465	0.1	0.525	87.99	0	PA_with_intermediate	test	ward_and_allport	89	4.0	0.525	to_hand	poldrack-single-stim	s638	False
87.991	0.1	0.567	88.558	0	PA_with_intermediate	test	ward_and_allport	71	4.0	0.567	to_board	poldrack-single-stim	s638	False
88.563	0.1	0.43	88.993	0	PA_with_intermediate	test	ward_and_allport	82	4.0	0.43	to_hand	poldrack-single-stim	s638	False
88.995	0.1	0.469	89.464	0	PA_with_intermediate	test	ward_and_allport	71	4.0	0.469	to_board	poldrack-single-stim	s638	False
89.469	1.0	2.816	89.468	0	PA_with_intermediate	test	ward_and_allport	-1	4.0	n/a	feedback	poldrack-single-stim	s638	False
92.289	2.884	2.884	95.173	1	PA_without_intermediate	test	ward_and_allport	82	5.0	2.884	to_hand	poldrack-single-stim	s638	False
95.174	0.1	0.428	95.602	0	PA_without_intermediate	test	ward_and_allport	71	5.0	0.428	to_board	poldrack-single-stim	s638	False
95.605	0.1	1.061	96.666	0	PA_without_intermediate	test	ward_and_allport	82	5.0	1.061	to_hand	poldrack-single-stim	s638	False
96.667	0.1	0.297	96.964	0	PA_without_intermediate	test	ward_and_allport	89	5.0	0.297	to_board	poldrack-single-stim	s638	False
96.968	0.1	0.379	97.347	0	PA_without_intermediate	test	ward_and_allport	82	5.0	0.379	to_hand	poldrack-single-stim	s638	False
97.348	0.1	0.284	97.632	0	PA_without_intermediate	test	ward_and_allport	71	5.0	0.284	to_board	poldrack-single-stim	s638	False
97.638	1.0	3.088	97.637	0	PA_without_intermediate	test	ward_and_allport	-1	5.0	n/a	feedback	poldrack-single-stim	s638	False
100.729	1.628	1.628	102.357	1	PA_without_intermediate	test	ward_and_allport	89	6.0	1.628	to_hand	poldrack-single-stim	s638	False
102.359	0.1	0.377	102.736	0	PA_without_intermediate	test	ward_and_allport	82	6.0	0.377	to_board	poldrack-single-stim	s638	False
102.74	0.1	0.341	103.081	0	PA_without_intermediate	test	ward_and_allport	89	6.0	0.341	to_hand	poldrack-single-stim	s638	False
103.081	0.1	0.616	103.697	0	PA_without_intermediate	test	ward_and_allport	71	6.0	0.616	to_board	poldrack-single-stim	s638	False
103.701	0.1	0.251	103.952	0	PA_without_intermediate	test	ward_and_allport	89	6.0	0.251	to_hand	poldrack-single-stim	s638	False
103.953	0.1	0.269	104.222	0	PA_without_intermediate	test	ward_and_allport	82	6.0	0.269	to_board	poldrack-single-stim	s638	False
104.226	1.0	2.136	104.225	0	PA_without_intermediate	test	ward_and_allport	-1	6.0	n/a	feedback	poldrack-single-stim	s638	False
106.367	1.491	1.491	107.858	1	PA_without_intermediate	test	ward_and_allport	71	7.0	1.491	to_hand	poldrack-single-stim	s638	False
107.859	0.1	0.483	108.342	0	PA_without_intermediate	test	ward_and_allport	82	7.0	0.483	to_board	poldrack-single-stim	s638	False
108.346	0.1	0.337	108.683	0	PA_without_intermediate	test	ward_and_allport	71	7.0	0.337	to_hand	poldrack-single-stim	s638	False
108.684	0.1	0.244	108.928	0	PA_without_intermediate	test	ward_and_allport	89	7.0	0.244	to_board	poldrack-single-stim	s638	False
108.931	0.1	0.271	109.202	0	PA_without_intermediate	test	ward_and_allport	71	7.0	0.271	to_hand	poldrack-single-stim	s638	False
109.204	0.1	0.271	109.475	0	PA_without_intermediate	test	ward_and_allport	82	7.0	0.271	to_board	poldrack-single-stim	s638	False
109.48	1.0	7.168	109.479	0	PA_without_intermediate	test	ward_and_allport	-1	7.0	n/a	feedback	poldrack-single-stim	s638	False
116.654	2.399	2.399	119.053	1	PA_without_intermediate	test	ward_and_allport	71	8.0	2.399	to_hand	poldrack-single-stim	s638	False
119.055	0.1	0.413	119.468	0	PA_without_intermediate	test	ward_and_allport	82	8.0	0.413	to_board	poldrack-single-stim	s638	False
119.472	0.1	0.321	119.793	0	PA_without_intermediate	test	ward_and_allport	71	8.0	0.321	to_hand	poldrack-single-stim	s638	False
119.795	0.1	0.335	120.13	0	PA_without_intermediate	test	ward_and_allport	82	8.0	0.335	to_board	poldrack-single-stim	s638	False
120.134	0.1	0.623	120.757	0	PA_without_intermediate	test	ward_and_allport	71	8.0	0.623	to_hand	poldrack-single-stim	s638	False
120.758	0.1	0.301	121.059	0	PA_without_intermediate	test	ward_and_allport	89	8.0	0.301	to_board	poldrack-single-stim	s638	False
121.064	1.0	2.816	121.063	0	PA_without_intermediate	test	ward_and_allport	-1	8.0	n/a	feedback	poldrack-single-stim	s638	False
123.884	3.227	3.227	127.111	1	PA_with_intermediate	test	ward_and_allport	89	9.0	3.227	to_hand	poldrack-single-stim	s638	False
127.112	0.1	0.381	127.493	0	PA_with_intermediate	test	ward_and_allport	71	9.0	0.381	to_board	poldrack-single-stim	s638	False
127.497	0.1	0.322	127.819	0	PA_with_intermediate	test	ward_and_allport	89	9.0	0.322	to_hand	poldrack-single-stim	s638	False
127.82	0.1	0.28	128.1	0	PA_with_intermediate	test	ward_and_allport	82	9.0	0.28	to_board	poldrack-single-stim	s638	False
128.104	0.1	0.359	128.463	0	PA_with_intermediate	test	ward_and_allport	71	9.0	0.359	to_hand	poldrack-single-stim	s638	False
128.465	0.1	0.252	128.717	0	PA_with_intermediate	test	ward_and_allport	89	9.0	0.252	to_board	poldrack-single-stim	s638	False
128.721	1.0	2.952	128.72	0	PA_with_intermediate	test	ward_and_allport	-1	9.0	n/a	feedback	poldrack-single-stim	s638	False
131.678	1.797	1.797	133.475	1	PA_with_intermediate	test	ward_and_allport	71	10.0	1.797	to_hand	poldrack-single-stim	s638	False
133.477	0.1	0.39	133.867	0	PA_with_intermediate	test	ward_and_allport	89	10.0	0.39	to_board	poldrack-single-stim	s638	False
133.871	0.1	0.262	134.133	0	PA_with_intermediate	test	ward_and_allport	71	10.0	0.262	to_hand	poldrack-single-stim	s638	False
134.134	0.1	0.283	134.417	0	PA_with_intermediate	test	ward_and_allport	82	10.0	0.283	to_board	poldrack-single-stim	s638	False
134.421	0.1	0.304	134.725	0	PA_with_intermediate	test	ward_and_allport	89	10.0	0.304	to_hand	poldrack-single-stim	s638	False
134.726	0.1	0.354	135.08	0	PA_with_intermediate	test	ward_and_allport	82	10.0	0.354	to_board	poldrack-single-stim	s638	False
135.085	1.0	2.136	135.084	0	PA_with_intermediate	test	ward_and_allport	-1	10.0	n/a	feedback	poldrack-single-stim	s638	False
137.226	1.807	1.807	139.033	1	PA_without_intermediate	test	ward_and_allport	71	11.0	1.807	to_hand	poldrack-single-stim	s638	False
139.035	0.1	0.319	139.354	0	PA_without_intermediate	test	ward_and_allport	82	11.0	0.319	to_board	poldrack-single-stim	s638	False
139.359	0.1	0.376	139.735	0	PA_without_intermediate	test	ward_and_allport	71	11.0	0.376	to_hand	poldrack-single-stim	s638	False
139.736	0.1	0.303	140.039	0	PA_without_intermediate	test	ward_and_allport	89	11.0	0.303	to_board	poldrack-single-stim	s638	False
140.043	0.1	0.306	140.349	0	PA_without_intermediate	test	ward_and_allport	71	11.0	0.306	to_hand	poldrack-single-stim	s638	False
140.35	0.1	0.315	140.665	0	PA_without_intermediate	test	ward_and_allport	82	11.0	0.315	to_board	poldrack-single-stim	s638	False
140.67	1.0	2.68	140.669	0	PA_without_intermediate	test	ward_and_allport	-1	11.0	n/a	feedback	poldrack-single-stim	s638	False
143.355	2.71	2.71	146.065	1	PA_without_intermediate	test	ward_and_allport	82	12.0	2.71	to_hand	poldrack-single-stim	s638	False
146.067	0.1	0.334	146.401	0	PA_without_intermediate	test	ward_and_allport	71	12.0	0.334	to_board	poldrack-single-stim	s638	False
146.406	0.1	0.32	146.726	0	PA_without_intermediate	test	ward_and_allport	82	12.0	0.32	to_hand	poldrack-single-stim	s638	False
146.728	0.1	0.285	147.013	0	PA_without_intermediate	test	ward_and_allport	71	12.0	0.285	to_board	poldrack-single-stim	s638	False
147.017	0.1	0.362	147.379	0	PA_without_intermediate	test	ward_and_allport	82	12.0	0.362	to_hand	poldrack-single-stim	s638	False
147.381	0.1	0.29	147.671	0	PA_without_intermediate	test	ward_and_allport	89	12.0	0.29	to_board	poldrack-single-stim	s638	False
147.676	1.0	3.088	147.675	0	PA_without_intermediate	test	ward_and_allport	-1	12.0	n/a	feedback	poldrack-single-stim	s638	False
150.77	3.333	3.333	154.103	1	PA_with_intermediate	test	ward_and_allport	82	13.0	3.333	to_hand	poldrack-single-stim	s638	False
154.104	0.1	0.439	154.543	0	PA_with_intermediate	test	ward_and_allport	71	13.0	0.439	to_board	poldrack-single-stim	s638	False
154.548	0.1	0.337	154.885	0	PA_with_intermediate	test	ward_and_allport	82	13.0	0.337	to_hand	poldrack-single-stim	s638	False
154.886	0.1	0.329	155.215	0	PA_with_intermediate	test	ward_and_allport	89	13.0	0.329	to_board	poldrack-single-stim	s638	False
155.219	0.1	0.819	156.038	0	PA_with_intermediate	test	ward_and_allport	71	13.0	0.819	to_hand	poldrack-single-stim	s638	False
156.039	0.1	0.382	156.421	0	PA_with_intermediate	test	ward_and_allport	82	13.0	0.382	to_board	poldrack-single-stim	s638	False
156.427	1.0	2.0	156.426	0	PA_with_intermediate	test	ward_and_allport	-1	13.0	n/a	feedback	poldrack-single-stim	s638	False
158.433	2.409	2.409	160.842	1	PA_without_intermediate	test	ward_and_allport	82	14.0	2.409	to_hand	poldrack-single-stim	s638	False
160.843	0.1	0.363	161.206	0	PA_without_intermediate	test	ward_and_allport	89	14.0	0.363	to_board	poldrack-single-stim	s638	False
161.212	0.1	0.505	161.717	0	PA_without_intermediate	test	ward_and_allport	82	14.0	0.505	to_hand	poldrack-single-stim	s638	False
161.718	0.1	0.51	162.228	0	PA_without_intermediate	test	ward_and_allport	71	14.0	0.51	to_board	poldrack-single-stim	s638	False
162.233	0.1	0.33	162.563	0	PA_without_intermediate	test	ward_and_allport	82	14.0	0.33	to_hand	poldrack-single-stim	s638	False
162.563	0.1	0.262	162.825	0	PA_without_intermediate	test	ward_and_allport	89	14.0	0.262	to_board	poldrack-single-stim	s638	False
162.831	1.0	2.0	162.83	0	PA_without_intermediate	test	ward_and_allport	-1	14.0	n/a	feedback	poldrack-single-stim	s638	False
169.839	1.4	1.4	171.239	1	PA_without_intermediate	test	ward_and_allport	82	15.0	1.4	to_hand	poldrack-single-stim	s638	False
171.241	0.1	0.229	171.47	0	PA_without_intermediate	test	ward_and_allport	89	15.0	0.229	to_board	poldrack-single-stim	s638	False
171.475	0.1	0.248	171.723	0	PA_without_intermediate	test	ward_and_allport	82	15.0	0.248	to_hand	poldrack-single-stim	s638	False
171.725	0.1	0.171	171.896	0	PA_without_intermediate	test	ward_and_allport	89	15.0	0.171	to_board	poldrack-single-stim	s638	False
171.899	0.1	0.272	172.171	0	PA_without_intermediate	test	ward_and_allport	82	15.0	0.272	to_hand	poldrack-single-stim	s638	False
172.172	0.1	0.28	172.452	0	PA_without_intermediate	test	ward_and_allport	71	15.0	0.28	to_board	poldrack-single-stim	s638	False
172.458	1.0	2.0	172.457	0	PA_without_intermediate	test	ward_and_allport	-1	15.0	n/a	feedback	poldrack-single-stim	s638	False
174.461	1.294	1.294	175.755	1	PA_with_intermediate	test	ward_and_allport	89	16.0	1.294	to_hand	poldrack-single-stim	s638	False
175.757	0.1	0.808	176.565	0	PA_with_intermediate	test	ward_and_allport	71	16.0	0.808	to_board	poldrack-single-stim	s638	False
176.57	0.1	1.538	178.108	0	PA_with_intermediate	test	ward_and_allport	71	16.0	1.538	to_hand	poldrack-single-stim	s638	False
178.11	0.1	0.209	178.319	0	PA_with_intermediate	test	ward_and_allport	82	16.0	0.209	to_board	poldrack-single-stim	s638	False
178.324	0.1	0.305	178.629	0	PA_with_intermediate	test	ward_and_allport	89	16.0	0.305	to_hand	poldrack-single-stim	s638	False
178.63	0.1	0.274	178.904	0	PA_with_intermediate	test	ward_and_allport	71	16.0	0.274	to_board	poldrack-single-stim	s638	False
178.91	0.1	0.771	179.681	0	PA_with_intermediate	test	ward_and_allport	82	16.0	0.771	to_hand	poldrack-single-stim	s638	False
179.682	0.1	1.319	181.001	0	PA_with_intermediate	test	ward_and_allport	89	16.0	1.319	to_board	poldrack-single-stim	s638	False
181.008	1.0	2.544	181.007	0	PA_with_intermediate	test	ward_and_allport	-1	16.0	n/a	feedback	poldrack-single-stim	s638	False
183.558	1.342	1.342	184.9	1	PA_without_intermediate	test	ward_and_allport	82	17.0	1.342	to_hand	poldrack-single-stim	s638	False
184.9	0.1	0.363	185.263	0	PA_without_intermediate	test	ward_and_allport	71	17.0	0.363	to_board	poldrack-single-stim	s638	False
185.268	0.1	0.816	186.084	0	PA_without_intermediate	test	ward_and_allport	82	17.0	0.816	to_hand	poldrack-single-stim	s638	False
186.086	0.1	0.395	186.481	0	PA_without_intermediate	test	ward_and_allport	71	17.0	0.395	to_board	poldrack-single-stim	s638	False
186.485	0.1	0.353	186.838	0	PA_without_intermediate	test	ward_and_allport	82	17.0	0.353	to_hand	poldrack-single-stim	s638	False
186.84	0.1	0.283	187.123	0	PA_without_intermediate	test	ward_and_allport	89	17.0	0.283	to_board	poldrack-single-stim	s638	False
187.128	1.0	2.272	187.127	0	PA_without_intermediate	test	ward_and_allport	-1	17.0	n/a	feedback	poldrack-single-stim	s638	False
189.406	1.866	1.866	191.272	1	PA_with_intermediate	test	ward_and_allport	82	18.0	1.866	to_hand	poldrack-single-stim	s638	False
191.273	0.1	0.22	191.493	0	PA_with_intermediate	test	ward_and_allport	89	18.0	0.22	to_board	poldrack-single-stim	s638	False
191.499	0.1	0.271	191.77	0	PA_with_intermediate	test	ward_and_allport	82	18.0	0.271	to_hand	poldrack-single-stim	s638	False
191.77	0.1	0.332	192.102	0	PA_with_intermediate	test	ward_and_allport	71	18.0	0.332	to_board	poldrack-single-stim	s638	False
192.108	0.1	0.239	192.347	0	PA_with_intermediate	test	ward_and_allport	89	18.0	0.239	to_hand	poldrack-single-stim	s638	False
192.347	0.1	0.246	192.593	0	PA_with_intermediate	test	ward_and_allport	71	18.0	0.246	to_board	poldrack-single-stim	s638	False
192.6	1.0	4.04	192.599	0	PA_with_intermediate	test	ward_and_allport	-1	18.0	n/a	feedback	poldrack-single-stim	s638	False
196.646	2.381	2.381	199.027	1	PA_with_intermediate	test	ward_and_allport	82	19.0	2.381	to_hand	poldrack-single-stim	s638	False
199.027	0.1	0.249	199.276	0	PA_with_intermediate	test	ward_and_allport	89	19.0	0.249	to_board	poldrack-single-stim	s638	False
199.281	0.1	0.476	199.757	0	PA_with_intermediate	test	ward_and_allport	82	19.0	0.476	to_hand	poldrack-single-stim	s638	False
199.758	0.1	0.544	200.302	0	PA_with_intermediate	test	ward_and_allport	71	19.0	0.544	to_board	poldrack-single-stim	s638	False
200.308	0.1	0.267	200.575	0	PA_with_intermediate	test	ward_and_allport	89	19.0	0.267	to_hand	poldrack-single-stim	s638	False
200.576	0.1	0.238	200.814	0	PA_with_intermediate	test	ward_and_allport	71	19.0	0.238	to_board	poldrack-single-stim	s638	False
200.82	0.1	0.849	201.669	0	PA_with_intermediate	test	ward_and_allport	71	19.0	0.849	to_hand	poldrack-single-stim	s638	False
201.67	0.1	0.326	201.996	0	PA_with_intermediate	test	ward_and_allport	82	19.0	0.326	to_board	poldrack-single-stim	s638	False
202.002	0.1	0.299	202.301	0	PA_with_intermediate	test	ward_and_allport	71	19.0	0.299	to_hand	poldrack-single-stim	s638	False
202.302	0.1	0.299	202.601	0	PA_with_intermediate	test	ward_and_allport	89	19.0	0.299	to_board	poldrack-single-stim	s638	False
202.607	0.1	0.174	202.781	0	PA_with_intermediate	test	ward_and_allport	89	19.0	0.174	to_hand	poldrack-single-stim	s638	False
202.782	0.1	0.583	203.365	0	PA_with_intermediate	test	ward_and_allport	89	19.0	0.583	to_board	poldrack-single-stim	s638	False
203.37	0.1	0.35	203.72	0	PA_with_intermediate	test	ward_and_allport	82	19.0	0.35	to_hand	poldrack-single-stim	s638	False
203.722	0.1	0.253	203.975	0	PA_with_intermediate	test	ward_and_allport	89	19.0	0.253	to_board	poldrack-single-stim	s638	False
203.982	1.0	2.272	203.981	0	PA_with_intermediate	test	ward_and_allport	-1	19.0	n/a	feedback	poldrack-single-stim	s638	False
206.26	2.111	2.111	208.371	1	PA_with_intermediate	test	ward_and_allport	71	20.0	2.111	to_hand	poldrack-single-stim	s638	False
208.373	0.1	0.495	208.868	0	PA_with_intermediate	test	ward_and_allport	82	20.0	0.495	to_board	poldrack-single-stim	s638	False
208.874	0.1	0.463	209.337	0	PA_with_intermediate	test	ward_and_allport	71	20.0	0.463	to_hand	poldrack-single-stim	s638	False
209.338	0.1	0.46	209.798	0	PA_with_intermediate	test	ward_and_allport	89	20.0	0.46	to_board	poldrack-single-stim	s638	False
209.803	0.1	0.327	210.13	0	PA_with_intermediate	test	ward_and_allport	82	20.0	0.327	to_hand	poldrack-single-stim	s638	False
210.132	0.1	0.283	210.415	0	PA_with_intermediate	test	ward_and_allport	89	20.0	0.283	to_board	poldrack-single-stim	s638	False
210.423	1.0	2.136	210.422	0	PA_with_intermediate	test	ward_and_allport	-1	20.0	n/a	feedback	poldrack-single-stim	s638	False
212.566	2.123	2.123	214.689	1	PA_with_intermediate	test	ward_and_allport	71	21.0	2.123	to_hand	poldrack-single-stim	s638	False
214.691	0.1	0.766	215.457	0	PA_with_intermediate	test	ward_and_allport	89	21.0	0.766	to_board	poldrack-single-stim	s638	False
215.464	0.1	0.242	215.706	0	PA_with_intermediate	test	ward_and_allport	71	21.0	0.242	to_hand	poldrack-single-stim	s638	False
215.707	0.1	0.293	216.0	0	PA_with_intermediate	test	ward_and_allport	82	21.0	0.293	to_board	poldrack-single-stim	s638	False
216.007	0.1	0.231	216.238	0	PA_with_intermediate	test	ward_and_allport	89	21.0	0.231	to_hand	poldrack-single-stim	s638	False
216.238	0.1	0.233	216.471	0	PA_with_intermediate	test	ward_and_allport	71	21.0	0.233	to_board	poldrack-single-stim	s638	False
216.479	1.0	2.0	216.478	0	PA_with_intermediate	test	ward_and_allport	-1	21.0	n/a	feedback	poldrack-single-stim	s638	False
218.487	3.897	3.897	222.384	1	PA_with_intermediate	test	ward_and_allport	82	22.0	3.897	to_hand	poldrack-single-stim	s638	False
222.384	0.1	0.247	222.631	0	PA_with_intermediate	test	ward_and_allport	89	22.0	0.247	to_board	poldrack-single-stim	s638	False
222.638	0.1	0.295	222.933	0	PA_with_intermediate	test	ward_and_allport	82	22.0	0.295	to_hand	poldrack-single-stim	s638	False
222.934	0.1	0.276	223.21	0	PA_with_intermediate	test	ward_and_allport	71	22.0	0.276	to_board	poldrack-single-stim	s638	False
223.217	0.1	0.222	223.439	0	PA_with_intermediate	test	ward_and_allport	89	22.0	0.222	to_hand	poldrack-single-stim	s638	False
223.44	0.1	0.241	223.681	0	PA_with_intermediate	test	ward_and_allport	82	22.0	0.241	to_board	poldrack-single-stim	s638	False
223.687	1.0	2.0	223.686	0	PA_with_intermediate	test	ward_and_allport	-1	22.0	n/a	feedback	poldrack-single-stim	s638	False
225.695	2.122	2.122	227.817	1	PA_without_intermediate	test	ward_and_allport	82	23.0	2.122	to_hand	poldrack-single-stim	s638	False
227.819	0.1	0.289	228.108	0	PA_without_intermediate	test	ward_and_allport	71	23.0	0.289	to_board	poldrack-single-stim	s638	False
228.115	0.1	0.328	228.443	0	PA_without_intermediate	test	ward_and_allport	82	23.0	0.328	to_hand	poldrack-single-stim	s638	False
228.444	0.1	0.29	228.734	0	PA_without_intermediate	test	ward_and_allport	89	23.0	0.29	to_board	poldrack-single-stim	s638	False
228.741	0.1	0.241	228.982	0	PA_without_intermediate	test	ward_and_allport	82	23.0	0.241	to_hand	poldrack-single-stim	s638	False
228.983	0.1	0.237	229.22	0	PA_without_intermediate	test	ward_and_allport	71	23.0	0.237	to_board	poldrack-single-stim	s638	False
229.228	1.0	2.408	229.227	0	PA_without_intermediate	test	ward_and_allport	-1	23.0	n/a	feedback	poldrack-single-stim	s638	False
231.644	2.195	2.195	233.839	1	PA_with_intermediate	test	ward_and_allport	89	24.0	2.195	to_hand	poldrack-single-stim	s638	False
233.84	0.1	0.228	234.068	0	PA_with_intermediate	test	ward_and_allport	71	24.0	0.228	to_board	poldrack-single-stim	s638	False
234.076	0.1	0.227	234.303	0	PA_with_intermediate	test	ward_and_allport	89	24.0	0.227	to_hand	poldrack-single-stim	s638	False
234.305	0.1	0.249	234.554	0	PA_with_intermediate	test	ward_and_allport	82	24.0	0.249	to_board	poldrack-single-stim	s638	False
234.561	0.1	0.29	234.851	0	PA_with_intermediate	test	ward_and_allport	71	24.0	0.29	to_hand	poldrack-single-stim	s638	False
234.853	0.1	0.23	235.083	0	PA_with_intermediate	test	ward_and_allport	82	24.0	0.23	to_board	poldrack-single-stim	s638	False
235.09	1.0	3.768	235.089	0	PA_with_intermediate	test	ward_and_allport	-1	24.0	n/a	feedback	poldrack-single-stim	s638	False
238.865	2.605	2.605	241.47	1	PA_with_intermediate	test	ward_and_allport	89	25.0	2.605	to_hand	poldrack-single-stim	s638	False
241.472	0.1	0.278	241.75	0	PA_with_intermediate	test	ward_and_allport	82	25.0	0.278	to_board	poldrack-single-stim	s638	False
241.757	0.1	0.264	242.021	0	PA_with_intermediate	test	ward_and_allport	89	25.0	0.264	to_hand	poldrack-single-stim	s638	False
242.022	0.1	0.205	242.227	0	PA_with_intermediate	test	ward_and_allport	71	25.0	0.205	to_board	poldrack-single-stim	s638	False
242.235	0.1	0.243	242.478	0	PA_with_intermediate	test	ward_and_allport	82	25.0	0.243	to_hand	poldrack-single-stim	s638	False
242.479	0.1	0.168	242.647	0	PA_with_intermediate	test	ward_and_allport	89	25.0	0.168	to_board	poldrack-single-stim	s638	False
242.655	1.0	2.68	242.654	0	PA_with_intermediate	test	ward_and_allport	-1	25.0	n/a	feedback	poldrack-single-stim	s638	False
245.342	2.399	2.399	247.741	1	PA_without_intermediate	test	ward_and_allport	71	26.0	2.399	to_hand	poldrack-single-stim	s638	False
247.743	0.1	0.237	247.98	0	PA_without_intermediate	test	ward_and_allport	82	26.0	0.237	to_board	poldrack-single-stim	s638	False
247.987	0.1	0.322	248.309	0	PA_without_intermediate	test	ward_and_allport	71	26.0	0.322	to_hand	poldrack-single-stim	s638	False
248.31	0.1	0.419	248.729	0	PA_without_intermediate	test	ward_and_allport	82	26.0	0.419	to_board	poldrack-single-stim	s638	False
248.736	0.1	0.282	249.018	0	PA_without_intermediate	test	ward_and_allport	71	26.0	0.282	to_hand	poldrack-single-stim	s638	False
249.019	0.1	0.219	249.238	0	PA_without_intermediate	test	ward_and_allport	89	26.0	0.219	to_board	poldrack-single-stim	s638	False
249.247	1.0	3.224	249.246	0	PA_without_intermediate	test	ward_and_allport	-1	26.0	n/a	feedback	poldrack-single-stim	s638	False
252.479	1.479	1.479	253.958	1	PA_without_intermediate	test	ward_and_allport	71	27.0	1.479	to_hand	poldrack-single-stim	s638	False
253.959	0.1	0.228	254.187	0	PA_without_intermediate	test	ward_and_allport	89	27.0	0.228	to_board	poldrack-single-stim	s638	False
254.194	0.1	0.34	254.534	0	PA_without_intermediate	test	ward_and_allport	71	27.0	0.34	to_hand	poldrack-single-stim	s638	False
254.535	0.1	0.231	254.766	0	PA_without_intermediate	test	ward_and_allport	82	27.0	0.231	to_board	poldrack-single-stim	s638	False
254.774	0.1	0.239	255.013	0	PA_without_intermediate	test	ward_and_allport	71	27.0	0.239	to_hand	poldrack-single-stim	s638	False
255.014	0.1	0.203	255.217	0	PA_without_intermediate	test	ward_and_allport	89	27.0	0.203	to_board	poldrack-single-stim	s638	False
255.225	1.0	3.36	255.224	0	PA_without_intermediate	test	ward_and_allport	-1	27.0	n/a	feedback	poldrack-single-stim	s638	False
258.592	1.76	1.76	260.352	1	PA_without_intermediate	test	ward_and_allport	89	28.0	1.76	to_hand	poldrack-single-stim	s638	False
260.353	0.1	0.189	260.542	0	PA_without_intermediate	test	ward_and_allport	71	28.0	0.189	to_board	poldrack-single-stim	s638	False
260.55	0.1	0.206	260.756	0	PA_without_intermediate	test	ward_and_allport	89	28.0	0.206	to_hand	poldrack-single-stim	s638	False
260.757	0.1	0.213	260.97	0	PA_without_intermediate	test	ward_and_allport	71	28.0	0.213	to_board	poldrack-single-stim	s638	False
260.977	0.1	0.188	261.165	0	PA_without_intermediate	test	ward_and_allport	89	28.0	0.188	to_hand	poldrack-single-stim	s638	False
261.165	0.1	0.243	261.408	0	PA_without_intermediate	test	ward_and_allport	82	28.0	0.243	to_board	poldrack-single-stim	s638	False
261.416	1.0	2.0	261.415	0	PA_without_intermediate	test	ward_and_allport	-1	28.0	n/a	feedback	poldrack-single-stim	s638	False
263.424	1.793	1.793	265.217	1	PA_without_intermediate	test	ward_and_allport	89	29.0	1.793	to_hand	poldrack-single-stim	s638	False
265.219	0.1	0.202	265.421	0	PA_without_intermediate	test	ward_and_allport	71	29.0	0.202	to_board	poldrack-single-stim	s638	False
265.429	0.1	0.195	265.624	0	PA_without_intermediate	test	ward_and_allport	89	29.0	0.195	to_hand	poldrack-single-stim	s638	False
265.626	0.1	0.188	265.814	0	PA_without_intermediate	test	ward_and_allport	71	29.0	0.188	to_board	poldrack-single-stim	s638	False
265.821	0.1	0.179	266.0	0	PA_without_intermediate	test	ward_and_allport	89	29.0	0.179	to_hand	poldrack-single-stim	s638	False
266.0	0.1	0.183	266.183	0	PA_without_intermediate	test	ward_and_allport	82	29.0	0.183	to_board	poldrack-single-stim	s638	False
266.19	1.0	2.408	266.189	0	PA_without_intermediate	test	ward_and_allport	-1	29.0	n/a	feedback	poldrack-single-stim	s638	False
273.606	2.286	2.286	275.892	1	PA_with_intermediate	test	ward_and_allport	71	30.0	2.286	to_hand	poldrack-single-stim	s638	False
275.892	0.1	0.194	276.086	0	PA_with_intermediate	test	ward_and_allport	89	30.0	0.194	to_board	poldrack-single-stim	s638	False
276.093	0.1	0.222	276.315	0	PA_with_intermediate	test	ward_and_allport	71	30.0	0.222	to_hand	poldrack-single-stim	s638	False
276.317	0.1	0.228	276.545	0	PA_with_intermediate	test	ward_and_allport	82	30.0	0.228	to_board	poldrack-single-stim	s638	False
276.553	0.1	0.173	276.726	0	PA_with_intermediate	test	ward_and_allport	89	30.0	0.173	to_hand	poldrack-single-stim	s638	False
276.727	0.1	0.201	276.928	0	PA_with_intermediate	test	ward_and_allport	82	30.0	0.201	to_board	poldrack-single-stim	s638	False
276.937	1.0	2.136	276.936	0	PA_with_intermediate	test	ward_and_allport	-1	30.0	n/a	feedback	poldrack-single-stim	s638	False
279.082	1.834	1.834	280.916	1	PA_without_intermediate	test	ward_and_allport	89	31.0	1.834	to_hand	poldrack-single-stim	s638	False
280.917	0.1	0.164	281.081	0	PA_without_intermediate	test	ward_and_allport	82	31.0	0.164	to_board	poldrack-single-stim	s638	False
281.088	0.1	0.199	281.287	0	PA_without_intermediate	test	ward_and_allport	89	31.0	0.199	to_hand	poldrack-single-stim	s638	False
281.288	0.1	0.181	281.469	0	PA_without_intermediate	test	ward_and_allport	82	31.0	0.181	to_board	poldrack-single-stim	s638	False
281.476	0.1	1.049	282.525	0	PA_without_intermediate	test	ward_and_allport	89	31.0	1.049	to_hand	poldrack-single-stim	s638	False
282.525	0.1	0.156	282.681	0	PA_without_intermediate	test	ward_and_allport	89	31.0	0.156	to_board	poldrack-single-stim	s638	False
282.688	0.1	0.64	283.328	0	PA_without_intermediate	test	ward_and_allport	89	31.0	0.64	to_hand	poldrack-single-stim	s638	False
283.329	0.1	0.404	283.733	0	PA_without_intermediate	test	ward_and_allport	71	31.0	0.404	to_board	poldrack-single-stim	s638	False
283.741	1.0	5.128	283.74	0	PA_without_intermediate	test	ward_and_allport	-1	31.0	n/a	feedback	poldrack-single-stim	s638	False
288.876	1.835	1.835	290.711	1	PA_without_intermediate	test	ward_and_allport	71	32.0	1.835	to_hand	poldrack-single-stim	s638	False
290.713	0.1	0.192	290.905	0	PA_without_intermediate	test	ward_and_allport	89	32.0	0.192	to_board	poldrack-single-stim	s638	False
290.913	0.1	0.197	291.11	0	PA_without_intermediate	test	ward_and_allport	71	32.0	0.197	to_hand	poldrack-single-stim	s638	False
291.111	0.1	0.178	291.289	0	PA_without_intermediate	test	ward_and_allport	89	32.0	0.178	to_board	poldrack-single-stim	s638	False
291.298	0.1	0.749	292.047	0	PA_without_intermediate	test	ward_and_allport	71	32.0	0.749	to_hand	poldrack-single-stim	s638	False
292.049	0.1	0.235	292.284	0	PA_without_intermediate	test	ward_and_allport	82	32.0	0.235	to_board	poldrack-single-stim	s638	False
292.295	1.0	2.136	292.294	0	PA_without_intermediate	test	ward_and_allport	-1	32.0	n/a	feedback	poldrack-single-stim	s638	False
294.44	1.759	1.759	296.199	1	PA_without_intermediate	test	ward_and_allport	89	33.0	1.759	to_hand	poldrack-single-stim	s638	False
296.201	0.1	0.166	296.367	0	PA_without_intermediate	test	ward_and_allport	82	33.0	0.166	to_board	poldrack-single-stim	s638	False
296.377	0.1	1.008	297.385	0	PA_without_intermediate	test	ward_and_allport	89	33.0	1.008	to_hand	poldrack-single-stim	s638	False
297.387	0.1	0.213	297.6	0	PA_without_intermediate	test	ward_and_allport	82	33.0	0.213	to_board	poldrack-single-stim	s638	False
297.606	0.1	0.229	297.835	0	PA_without_intermediate	test	ward_and_allport	89	33.0	0.229	to_hand	poldrack-single-stim	s638	False
297.837	0.1	0.186	298.023	0	PA_without_intermediate	test	ward_and_allport	71	33.0	0.186	to_board	poldrack-single-stim	s638	False
298.031	1.0	5.264	298.03	0	PA_without_intermediate	test	ward_and_allport	-1	33.0	n/a	feedback	poldrack-single-stim	s638	False
303.302	2.271	2.271	305.573	1	PA_with_intermediate	test	ward_and_allport	71	34.0	2.271	to_hand	poldrack-single-stim	s638	False
305.574	0.1	0.199	305.773	0	PA_with_intermediate	test	ward_and_allport	82	34.0	0.199	to_board	poldrack-single-stim	s638	False
305.783	0.1	0.213	305.996	0	PA_with_intermediate	test	ward_and_allport	71	34.0	0.213	to_hand	poldrack-single-stim	s638	False
305.996	0.1	0.191	306.187	0	PA_with_intermediate	test	ward_and_allport	89	34.0	0.191	to_board	poldrack-single-stim	s638	False
306.197	0.1	0.221	306.418	0	PA_with_intermediate	test	ward_and_allport	82	34.0	0.221	to_hand	poldrack-single-stim	s638	False
306.418	0.1	0.193	306.611	0	PA_with_intermediate	test	ward_and_allport	71	34.0	0.193	to_board	poldrack-single-stim	s638	False
306.622	1.0	4.04	306.621	0	PA_with_intermediate	test	ward_and_allport	-1	34.0	n/a	feedback	poldrack-single-stim	s638	False
310.671	3.378	3.378	314.049	1	PA_with_intermediate	test	ward_and_allport	71	35.0	3.378	to_hand	poldrack-single-stim	s638	False
314.049	0.1	0.159	314.208	0	PA_with_intermediate	test	ward_and_allport	89	35.0	0.159	to_board	poldrack-single-stim	s638	False
314.216	0.1	0.157	314.373	0	PA_with_intermediate	test	ward_and_allport	89	35.0	0.157	to_hand	poldrack-single-stim	s638	False
314.373	0.1	0.036	314.409	0	PA_with_intermediate	test	ward_and_allport	71	35.0	0.036	to_board	poldrack-single-stim	s638	False
314.417	0.1	0.664	315.081	0	PA_with_intermediate	test	ward_and_allport	71	35.0	0.664	to_hand	poldrack-single-stim	s638	False
315.083	0.1	0.433	315.516	0	PA_with_intermediate	test	ward_and_allport	89	35.0	0.433	to_board	poldrack-single-stim	s638	False
315.526	0.1	0.343	315.869	0	PA_with_intermediate	test	ward_and_allport	71	35.0	0.343	to_hand	poldrack-single-stim	s638	False
315.87	0.1	0.316	316.186	0	PA_with_intermediate	test	ward_and_allport	82	35.0	0.316	to_board	poldrack-single-stim	s638	False
316.195	0.1	0.242	316.437	0	PA_with_intermediate	test	ward_and_allport	89	35.0	0.242	to_hand	poldrack-single-stim	s638	False
316.438	0.1	0.254	316.692	0	PA_with_intermediate	test	ward_and_allport	71	35.0	0.254	to_board	poldrack-single-stim	s638	False
316.7	1.0	2.136	316.699	0	PA_with_intermediate	test	ward_and_allport	-1	35.0	n/a	feedback	poldrack-single-stim	s638	False
318.844	1.853	1.853	320.697	1	PA_with_intermediate	test	ward_and_allport	71	36.0	1.853	to_hand	poldrack-single-stim	s638	False
320.698	0.1	0.253	320.951	0	PA_with_intermediate	test	ward_and_allport	82	36.0	0.253	to_board	poldrack-single-stim	s638	False
320.958	0.1	0.287	321.245	0	PA_with_intermediate	test	ward_and_allport	71	36.0	0.287	to_hand	poldrack-single-stim	s638	False
321.247	0.1	0.22	321.467	0	PA_with_intermediate	test	ward_and_allport	89	36.0	0.22	to_board	poldrack-single-stim	s638	False
321.474	0.1	0.252	321.726	0	PA_with_intermediate	test	ward_and_allport	82	36.0	0.252	to_hand	poldrack-single-stim	s638	False
321.728	0.1	0.226	321.954	0	PA_with_intermediate	test	ward_and_allport	71	36.0	0.226	to_board	poldrack-single-stim	s638	False
321.962	1.0	2.408	321.961	0	PA_with_intermediate	test	ward_and_allport	-1	36.0	n/a	feedback	poldrack-single-stim	s638	False
324.378	2.707	2.707	327.085	1	PA_without_intermediate	test	ward_and_allport	89	37.0	2.707	to_hand	poldrack-single-stim	s638	False
327.087	0.1	0.268	327.355	0	PA_without_intermediate	test	ward_and_allport	71	37.0	0.268	to_board	poldrack-single-stim	s638	False
327.362	0.1	0.581	327.943	0	PA_without_intermediate	test	ward_and_allport	89	37.0	0.581	to_hand	poldrack-single-stim	s638	False
327.945	0.1	0.252	328.197	0	PA_without_intermediate	test	ward_and_allport	82	37.0	0.252	to_board	poldrack-single-stim	s638	False
328.206	0.1	0.232	328.438	0	PA_without_intermediate	test	ward_and_allport	89	37.0	0.232	to_hand	poldrack-single-stim	s638	False
328.439	0.1	0.223	328.662	0	PA_without_intermediate	test	ward_and_allport	71	37.0	0.223	to_board	poldrack-single-stim	s638	False
328.672	1.0	2.68	328.671	0	PA_without_intermediate	test	ward_and_allport	-1	37.0	n/a	feedback	poldrack-single-stim	s638	False
331.36	1.766	1.766	333.126	1	PA_with_intermediate	test	ward_and_allport	82	38.0	1.766	to_hand	poldrack-single-stim	s638	False
333.128	0.1	1.066	334.194	0	PA_with_intermediate	test	ward_and_allport	71	38.0	1.066	to_board	poldrack-single-stim	s638	False
334.201	0.1	0.289	334.49	0	PA_with_intermediate	test	ward_and_allport	82	38.0	0.289	to_hand	poldrack-single-stim	s638	False
334.491	0.1	0.254	334.745	0	PA_with_intermediate	test	ward_and_allport	89	38.0	0.254	to_board	poldrack-single-stim	s638	False
334.755	0.1	0.363	335.118	0	PA_with_intermediate	test	ward_and_allport	71	38.0	0.363	to_hand	poldrack-single-stim	s638	False
335.119	0.1	0.305	335.424	0	PA_with_intermediate	test	ward_and_allport	89	38.0	0.305	to_board	poldrack-single-stim	s638	False
335.433	1.0	4.72	335.432	0	PA_with_intermediate	test	ward_and_allport	-1	38.0	n/a	feedback	poldrack-single-stim	s638	False
340.162	1.229	1.229	341.391	1	PA_without_intermediate	test	ward_and_allport	71	39.0	1.229	to_hand	poldrack-single-stim	s638	False
341.392	0.1	0.21	341.602	0	PA_without_intermediate	test	ward_and_allport	89	39.0	0.21	to_board	poldrack-single-stim	s638	False
341.611	0.1	0.217	341.828	0	PA_without_intermediate	test	ward_and_allport	71	39.0	0.217	to_hand	poldrack-single-stim	s638	False
341.829	0.1	0.21	342.039	0	PA_without_intermediate	test	ward_and_allport	82	39.0	0.21	to_board	poldrack-single-stim	s638	False
342.049	0.1	0.227	342.276	0	PA_without_intermediate	test	ward_and_allport	71	39.0	0.227	to_hand	poldrack-single-stim	s638	False
342.278	0.1	0.215	342.493	0	PA_without_intermediate	test	ward_and_allport	89	39.0	0.215	to_board	poldrack-single-stim	s638	False
342.502	1.0	3.224	342.501	0	PA_without_intermediate	test	ward_and_allport	-1	39.0	n/a	feedback	poldrack-single-stim	s638	False
345.733	1.722	1.722	347.455	1	PA_without_intermediate	test	ward_and_allport	82	40.0	1.722	to_hand	poldrack-single-stim	s638	False
347.457	0.1	0.178	347.635	0	PA_without_intermediate	test	ward_and_allport	89	40.0	0.178	to_board	poldrack-single-stim	s638	False
347.643	0.1	0.336	347.979	0	PA_without_intermediate	test	ward_and_allport	82	40.0	0.336	to_hand	poldrack-single-stim	s638	False
347.98	0.1	0.214	348.194	0	PA_without_intermediate	test	ward_and_allport	89	40.0	0.214	to_board	poldrack-single-stim	s638	False
348.202	0.1	0.684	348.886	0	PA_without_intermediate	test	ward_and_allport	82	40.0	0.684	to_hand	poldrack-single-stim	s638	False
348.888	0.1	0.27	349.158	0	PA_without_intermediate	test	ward_and_allport	71	40.0	0.27	to_board	poldrack-single-stim	s638	False
349.166	1.0	2.272	349.165	0	PA_without_intermediate	test	ward_and_allport	-1	40.0	n/a	feedback	poldrack-single-stim	s638	False
351.446	2.116	2.116	353.562	1	PA_with_intermediate	test	ward_and_allport	82	41.0	2.116	to_hand	poldrack-single-stim	s638	False
353.564	0.1	0.577	354.141	0	PA_with_intermediate	test	ward_and_allport	71	41.0	0.577	to_board	poldrack-single-stim	s638	False
354.149	0.1	0.225	354.374	0	PA_with_intermediate	test	ward_and_allport	82	41.0	0.225	to_hand	poldrack-single-stim	s638	False
354.376	0.1	0.223	354.599	0	PA_with_intermediate	test	ward_and_allport	89	41.0	0.223	to_board	poldrack-single-stim	s638	False
354.606	0.1	0.486	355.092	0	PA_with_intermediate	test	ward_and_allport	71	41.0	0.486	to_hand	poldrack-single-stim	s638	False
355.094	0.1	0.251	355.345	0	PA_with_intermediate	test	ward_and_allport	82	41.0	0.251	to_board	poldrack-single-stim	s638	False
355.353	1.0	3.632	355.352	0	PA_with_intermediate	test	ward_and_allport	-1	41.0	n/a	feedback	poldrack-single-stim	s638	False
358.993	1.22	1.22	360.213	1	PA_without_intermediate	test	ward_and_allport	89	42.0	1.22	to_hand	poldrack-single-stim	s638	False
360.214	0.1	0.178	360.392	0	PA_without_intermediate	test	ward_and_allport	71	42.0	0.178	to_board	poldrack-single-stim	s638	False
360.4	0.1	0.219	360.619	0	PA_without_intermediate	test	ward_and_allport	89	42.0	0.219	to_hand	poldrack-single-stim	s638	False
360.621	0.1	0.225	360.846	0	PA_without_intermediate	test	ward_and_allport	82	42.0	0.225	to_board	poldrack-single-stim	s638	False
360.853	0.1	0.188	361.041	0	PA_without_intermediate	test	ward_and_allport	89	42.0	0.188	to_hand	poldrack-single-stim	s638	False
361.042	0.1	0.195	361.237	0	PA_without_intermediate	test	ward_and_allport	71	42.0	0.195	to_board	poldrack-single-stim	s638	False
361.246	1.0	2.408	361.245	0	PA_without_intermediate	test	ward_and_allport	-1	42.0	n/a	feedback	poldrack-single-stim	s638	False
363.661	1.123	1.123	364.784	1	PA_without_intermediate	test	ward_and_allport	89	43.0	1.123	to_hand	poldrack-single-stim	s638	False
364.785	0.1	0.205	364.99	0	PA_without_intermediate	test	ward_and_allport	82	43.0	0.205	to_board	poldrack-single-stim	s638	False
364.997	0.1	0.548	365.545	0	PA_without_intermediate	test	ward_and_allport	89	43.0	0.548	to_hand	poldrack-single-stim	s638	False
365.546	0.1	0.149	365.695	0	PA_without_intermediate	test	ward_and_allport	71	43.0	0.149	to_board	poldrack-single-stim	s638	False
365.703	0.1	0.357	366.06	0	PA_without_intermediate	test	ward_and_allport	82	43.0	0.357	to_hand	poldrack-single-stim	s638	False
366.061	0.1	0.616	366.677	0	PA_without_intermediate	test	ward_and_allport	82	43.0	0.616	to_board	poldrack-single-stim	s638	False
366.684	0.1	0.283	366.967	0	PA_without_intermediate	test	ward_and_allport	89	43.0	0.283	to_hand	poldrack-single-stim	s638	False
366.969	0.1	0.25	367.219	0	PA_without_intermediate	test	ward_and_allport	82	43.0	0.25	to_board	poldrack-single-stim	s638	False
367.227	1.0	2.0	367.226	0	PA_without_intermediate	test	ward_and_allport	-1	43.0	n/a	feedback	poldrack-single-stim	s638	False
369.237	1.653	1.653	370.89	1	PA_with_intermediate	test	ward_and_allport	82	44.0	1.653	to_hand	poldrack-single-stim	s638	False
370.891	0.1	0.282	371.173	0	PA_with_intermediate	test	ward_and_allport	89	44.0	0.282	to_board	poldrack-single-stim	s638	False
371.181	0.1	0.289	371.47	0	PA_with_intermediate	test	ward_and_allport	82	44.0	0.289	to_hand	poldrack-single-stim	s638	False
371.471	0.1	0.236	371.707	0	PA_with_intermediate	test	ward_and_allport	71	44.0	0.236	to_board	poldrack-single-stim	s638	False
371.715	0.1	0.218	371.933	0	PA_with_intermediate	test	ward_and_allport	89	44.0	0.218	to_hand	poldrack-single-stim	s638	False
371.934	0.1	0.228	372.162	0	PA_with_intermediate	test	ward_and_allport	71	44.0	0.228	to_board	poldrack-single-stim	s638	False
372.172	1.0	2.0	372.171	0	PA_with_intermediate	test	ward_and_allport	-1	44.0	n/a	feedback	poldrack-single-stim	s638	False
379.183	2.606	2.606	381.789	1	PA_with_intermediate	test	ward_and_allport	82	45.0	2.606	to_hand	poldrack-single-stim	s638	False
381.791	0.1	0.232	382.023	0	PA_with_intermediate	test	ward_and_allport	89	45.0	0.232	to_board	poldrack-single-stim	s638	False
382.034	0.1	0.297	382.331	0	PA_with_intermediate	test	ward_and_allport	82	45.0	0.297	to_hand	poldrack-single-stim	s638	False
382.332	0.1	0.231	382.563	0	PA_with_intermediate	test	ward_and_allport	71	45.0	0.231	to_board	poldrack-single-stim	s638	False
382.575	0.1	0.235	382.81	0	PA_with_intermediate	test	ward_and_allport	89	45.0	0.235	to_hand	poldrack-single-stim	s638	False
382.812	0.1	0.315	383.127	0	PA_with_intermediate	test	ward_and_allport	82	45.0	0.315	to_board	poldrack-single-stim	s638	False
383.14	1.0	2.0	383.139	0	PA_with_intermediate	test	ward_and_allport	-1	45.0	n/a	feedback	poldrack-single-stim	s638	False
385.151	1.436	1.436	386.587	1	PA_with_intermediate	test	ward_and_allport	71	46.0	1.436	to_hand	poldrack-single-stim	s638	False
386.589	0.1	0.206	386.795	0	PA_with_intermediate	test	ward_and_allport	82	46.0	0.206	to_board	poldrack-single-stim	s638	False
386.803	0.1	0.221	387.024	0	PA_with_intermediate	test	ward_and_allport	71	46.0	0.221	to_hand	poldrack-single-stim	s638	False
387.026	0.1	0.22	387.246	0	PA_with_intermediate	test	ward_and_allport	89	46.0	0.22	to_board	poldrack-single-stim	s638	False
387.255	0.1	0.234	387.489	0	PA_with_intermediate	test	ward_and_allport	82	46.0	0.234	to_hand	poldrack-single-stim	s638	False
387.491	0.1	0.211	387.702	0	PA_with_intermediate	test	ward_and_allport	89	46.0	0.211	to_board	poldrack-single-stim	s638	False
387.713	1.0	2.408	387.712	0	PA_with_intermediate	test	ward_and_allport	-1	46.0	n/a	feedback	poldrack-single-stim	s638	False
390.13	1.802	1.802	391.932	1	PA_without_intermediate	test	ward_and_allport	71	47.0	1.802	to_hand	poldrack-single-stim	s638	False
391.934	0.1	0.214	392.148	0	PA_without_intermediate	test	ward_and_allport	89	47.0	0.214	to_board	poldrack-single-stim	s638	False
392.156	0.1	0.257	392.413	0	PA_without_intermediate	test	ward_and_allport	71	47.0	0.257	to_hand	poldrack-single-stim	s638	False
392.414	0.1	0.204	392.618	0	PA_without_intermediate	test	ward_and_allport	89	47.0	0.204	to_board	poldrack-single-stim	s638	False
392.627	0.1	0.243	392.87	0	PA_without_intermediate	test	ward_and_allport	71	47.0	0.243	to_hand	poldrack-single-stim	s638	False
392.872	0.1	0.21	393.082	0	PA_without_intermediate	test	ward_and_allport	82	47.0	0.21	to_board	poldrack-single-stim	s638	False
393.09	1.0	2.816	393.089	0	PA_without_intermediate	test	ward_and_allport	-1	47.0	n/a	feedback	poldrack-single-stim	s638	False
