onset	duration	correct	correct_response	cue	experiment_exp_id	flanker_location	flanker_middle_direction	flanker_type	key_press	response_time	worker_id
3.506	1.7	1.0	71.0	spatial	attention_network_task	down	right	incongruent	71	0.711	s635
6.11	1.7	0.0	89.0	spatial	attention_network_task	up	left	incongruent	-1	n/a	s635
8.714864	1.7	0.0	71.0	spatial	attention_network_task	up	right	congruent	-1	n/a	s635
11.317727999999999	1.7	1.0	71.0	spatial	attention_network_task	up	right	congruent	71	0.793	s635
13.920592000000001	1.7	1.0	71.0	double	attention_network_task	down	right	incongruent	71	0.559	s635
16.525	1.7	1.0	89.0	double	attention_network_task	down	left	congruent	89	0.959	s635
19.128864	1.7	0.0	71.0	double	attention_network_task	down	right	congruent	-1	n/a	s635
21.732864000000003	1.7	0.0	89.0	spatial	attention_network_task	down	left	congruent	-1	n/a	s635
24.337	1.7	0.0	89.0	double	attention_network_task	up	left	congruent	-1	n/a	s635
26.939592	1.7	0.0	71.0	double	attention_network_task	up	right	incongruent	-1	n/a	s635
29.543456	1.7	0.0	71.0	spatial	attention_network_task	down	right	congruent	89	0.483	s635
32.147864	1.7	1.0	89.0	spatial	attention_network_task	up	left	congruent	89	0.565	s635
34.750864	1.7	1.0	89.0	spatial	attention_network_task	down	left	congruent	89	0.487	s635
37.354	1.7	1.0	71.0	spatial	attention_network_task	up	right	incongruent	71	0.9	s635
39.958	1.7	0.0	71.0	double	attention_network_task	up	right	congruent	-1	n/a	s635
42.560864	1.7	0.0	71.0	double	attention_network_task	down	right	congruent	-1	n/a	s635
45.166	1.7	0.0	71.0	double	attention_network_task	up	right	congruent	-1	n/a	s635
47.769864	1.7	0.0	89.0	double	attention_network_task	up	left	congruent	-1	n/a	s635
50.374	1.7	0.0	89.0	double	attention_network_task	down	left	congruent	-1	n/a	s635
52.977591999999994	1.7	1.0	71.0	spatial	attention_network_task	up	right	congruent	71	0.541	s635
55.581	1.7	1.0	89.0	spatial	attention_network_task	up	left	incongruent	89	0.677	s635
58.183184000000004	1.7	0.0	71.0	double	attention_network_task	up	right	incongruent	-1	n/a	s635
60.78732	1.7	0.0	71.0	spatial	attention_network_task	up	right	congruent	-1	n/a	s635
63.391	1.7	0.0	89.0	spatial	attention_network_task	down	left	congruent	-1	n/a	s635
65.994864	1.7	0.0	89.0	spatial	attention_network_task	up	left	congruent	-1	n/a	s635
68.598864	1.7	0.0	89.0	double	attention_network_task	up	left	incongruent	-1	n/a	s635
71.202864	1.7	1.0	71.0	double	attention_network_task	up	right	incongruent	71	0.823	s635
73.806	1.7	1.0	71.0	double	attention_network_task	down	right	incongruent	71	0.679	s635
76.409864	1.7	0.0	89.0	spatial	attention_network_task	up	left	incongruent	-1	n/a	s635
79.013048	1.7	0.0	71.0	spatial	attention_network_task	down	right	incongruent	-1	n/a	s635
81.617864	1.7	0.0	89.0	double	attention_network_task	down	left	incongruent	-1	n/a	s635
84.22059200000001	1.7	0.0	89.0	double	attention_network_task	down	left	incongruent	71	1.444	s635
86.823048	1.7	1.0	71.0	spatial	attention_network_task	up	right	incongruent	71	0.813	s635
89.427864	1.7	1.0	71.0	double	attention_network_task	down	right	incongruent	71	0.679	s635
92.030728	1.7	1.0	89.0	double	attention_network_task	down	left	incongruent	89	1.669	s635
94.633728	1.7	1.0	89.0	double	attention_network_task	up	left	incongruent	89	0.751	s635
97.239	1.7	1.0	71.0	double	attention_network_task	up	right	congruent	71	0.688	s635
99.843	1.7	0.0	71.0	spatial	attention_network_task	up	right	incongruent	-1	n/a	s635
102.447728	1.7	1.0	71.0	spatial	attention_network_task	down	right	congruent	71	1.273	s635
105.051	1.7	1.0	89.0	spatial	attention_network_task	down	left	congruent	89	0.791	s635
107.655	1.7	0.0	89.0	spatial	attention_network_task	down	left	incongruent	-1	n/a	s635
110.257728	1.7	0.0	71.0	double	attention_network_task	down	right	congruent	-1	n/a	s635
112.862	1.7	0.0	71.0	spatial	attention_network_task	down	right	incongruent	-1	n/a	s635
115.466864	1.7	1.0	71.0	spatial	attention_network_task	up	right	congruent	71	1.888	s635
118.069728	1.7	1.0	71.0	spatial	attention_network_task	down	right	congruent	71	1.078	s635
120.675	1.7	0.0	89.0	spatial	attention_network_task	up	left	congruent	-1	n/a	s635
123.278	1.7	0.0	71.0	double	attention_network_task	up	right	incongruent	-1	n/a	s635
125.882	1.7	1.0	89.0	double	attention_network_task	down	left	congruent	89	0.932	s635
128.485	1.7	0.0	89.0	spatial	attention_network_task	up	left	incongruent	-1	n/a	s635
131.09	1.7	0.0	71.0	double	attention_network_task	down	right	congruent	-1	n/a	s635
133.694	1.7	0.0	71.0	spatial	attention_network_task	up	right	incongruent	-1	n/a	s635
136.296728	1.7	0.0	71.0	double	attention_network_task	down	right	congruent	-1	n/a	s635
138.900864	1.7	0.0	71.0	double	attention_network_task	down	right	incongruent	-1	n/a	s635
141.50491200000002	1.7	0.0	71.0	double	attention_network_task	up	right	incongruent	-1	n/a	s635
144.108728	1.7	0.0	89.0	spatial	attention_network_task	up	left	congruent	-1	n/a	s635
146.712864	1.7	1.0	89.0	spatial	attention_network_task	up	left	congruent	89	0.643	s635
149.316864	1.7	0.0	71.0	double	attention_network_task	up	right	congruent	-1	n/a	s635
151.921	1.7	0.0	71.0	double	attention_network_task	up	right	congruent	-1	n/a	s635
154.525	1.7	1.0	89.0	spatial	attention_network_task	down	left	incongruent	89	1.866	s635
157.129	1.7	1.0	71.0	spatial	attention_network_task	down	right	congruent	71	0.66	s635
159.732	1.7	1.0	89.0	double	attention_network_task	up	left	incongruent	89	1.831	s635
162.33586400000002	1.7	0.0	89.0	spatial	attention_network_task	down	left	incongruent	-1	n/a	s635
164.939728	1.7	1.0	71.0	double	attention_network_task	up	right	incongruent	71	0.695	s635
167.542864	1.7	1.0	71.0	spatial	attention_network_task	down	right	congruent	71	0.768	s635
180.648864	1.7	0.0	89.0	double	attention_network_task	down	left	congruent	-1	n/a	s635
183.253	1.7	0.0	71.0	double	attention_network_task	down	right	incongruent	-1	n/a	s635
185.857	1.7	0.0	71.0	spatial	attention_network_task	down	right	congruent	-1	n/a	s635
188.45959200000001	1.7	0.0	89.0	double	attention_network_task	down	left	congruent	-1	n/a	s635
191.063456	1.7	1.0	89.0	double	attention_network_task	up	left	congruent	89	0.735	s635
193.666592	1.7	1.0	89.0	spatial	attention_network_task	up	left	incongruent	89	0.869	s635
196.271	1.7	0.0	89.0	spatial	attention_network_task	up	left	congruent	-1	n/a	s635
198.874592	1.7	1.0	89.0	double	attention_network_task	down	left	congruent	89	1.997	s635
201.479	1.7	1.0	71.0	spatial	attention_network_task	down	right	congruent	71	0.752	s635
204.082592	1.7	0.0	71.0	spatial	attention_network_task	up	right	congruent	-1	n/a	s635
206.686	1.7	0.0	89.0	spatial	attention_network_task	down	left	incongruent	-1	n/a	s635
209.29	1.7	0.0	89.0	spatial	attention_network_task	up	left	incongruent	-1	n/a	s635
211.893592	1.7	1.0	71.0	spatial	attention_network_task	down	right	incongruent	71	0.819	s635
214.497864	1.7	0.0	89.0	spatial	attention_network_task	down	left	incongruent	-1	n/a	s635
217.100728	1.7	0.0	89.0	double	attention_network_task	down	left	incongruent	-1	n/a	s635
219.70345600000002	1.7	0.0	89.0	double	attention_network_task	up	left	incongruent	-1	n/a	s635
222.307728	1.7	0.0	89.0	spatial	attention_network_task	down	left	incongruent	-1	n/a	s635
224.912	1.7	0.0	71.0	spatial	attention_network_task	down	right	incongruent	-1	n/a	s635
227.515592	1.7	0.0	71.0	spatial	attention_network_task	up	right	incongruent	-1	n/a	s635
230.12	1.7	0.0	71.0	spatial	attention_network_task	up	right	congruent	-1	n/a	s635
232.724	1.7	0.0	89.0	double	attention_network_task	up	left	congruent	-1	n/a	s635
235.327456	1.7	0.0	89.0	double	attention_network_task	up	left	incongruent	-1	n/a	s635
237.931592	1.7	0.0	89.0	spatial	attention_network_task	down	left	congruent	-1	n/a	s635
240.535	1.7	0.0	71.0	spatial	attention_network_task	up	right	congruent	-1	n/a	s635
243.138864	1.7	0.0	89.0	spatial	attention_network_task	down	left	congruent	-1	n/a	s635
245.741184	1.7	0.0	89.0	spatial	attention_network_task	up	left	incongruent	-1	n/a	s635
248.345864	1.7	0.0	89.0	double	attention_network_task	up	left	congruent	-1	n/a	s635
250.95	1.7	0.0	89.0	spatial	attention_network_task	up	left	congruent	-1	n/a	s635
253.553864	1.7	0.0	71.0	double	attention_network_task	down	right	incongruent	-1	n/a	s635
256.156864	1.7	0.0	71.0	spatial	attention_network_task	down	right	incongruent	-1	n/a	s635
258.760864	1.7	0.0	89.0	double	attention_network_task	down	left	incongruent	-1	n/a	s635
261.364456	1.7	0.0	71.0	spatial	attention_network_task	down	right	congruent	-1	n/a	s635
263.969	1.7	0.0	89.0	spatial	attention_network_task	down	left	congruent	-1	n/a	s635
266.573728	1.7	0.0	89.0	double	attention_network_task	up	left	incongruent	-1	n/a	s635
269.178	1.7	0.0	89.0	spatial	attention_network_task	up	left	congruent	-1	n/a	s635
271.780864	1.7	0.0	89.0	spatial	attention_network_task	down	left	congruent	-1	n/a	s635
274.384592	1.7	0.0	89.0	double	attention_network_task	down	left	incongruent	-1	n/a	s635
276.988456	1.7	0.0	89.0	double	attention_network_task	up	left	congruent	-1	n/a	s635
279.592	1.7	0.0	89.0	double	attention_network_task	down	left	incongruent	-1	n/a	s635
282.19586400000003	1.7	0.0	71.0	spatial	attention_network_task	up	right	incongruent	-1	n/a	s635
284.798864	1.7	0.0	71.0	double	attention_network_task	up	right	incongruent	-1	n/a	s635
287.402864	1.7	0.0	89.0	spatial	attention_network_task	down	left	incongruent	-1	n/a	s635
290.006864	1.7	0.0	89.0	double	attention_network_task	up	left	congruent	-1	n/a	s635
292.610728	1.7	0.0	89.0	spatial	attention_network_task	up	left	incongruent	-1	n/a	s635
295.214864	1.7	0.0	71.0	spatial	attention_network_task	down	right	incongruent	-1	n/a	s635
297.818592	1.7	0.0	71.0	spatial	attention_network_task	up	right	incongruent	-1	n/a	s635
300.424	1.7	0.0	71.0	double	attention_network_task	down	right	incongruent	-1	n/a	s635
303.027864	1.7	0.0	71.0	double	attention_network_task	up	right	congruent	-1	n/a	s635
305.631	1.7	0.0	71.0	spatial	attention_network_task	down	right	congruent	-1	n/a	s635
308.234864	1.7	0.0	71.0	double	attention_network_task	down	right	incongruent	-1	n/a	s635
310.837048	1.7	0.0	71.0	spatial	attention_network_task	up	right	congruent	-1	n/a	s635
313.440728	1.7	0.0	71.0	double	attention_network_task	up	right	congruent	-1	n/a	s635
316.044864	1.7	0.0	71.0	double	attention_network_task	down	right	congruent	-1	n/a	s635
318.649	1.7	0.0	89.0	double	attention_network_task	down	left	incongruent	-1	n/a	s635
321.252864	1.7	0.0	71.0	spatial	attention_network_task	down	right	incongruent	-1	n/a	s635
323.856	1.7	0.0	89.0	double	attention_network_task	up	left	congruent	-1	n/a	s635
326.459864	1.7	0.0	71.0	spatial	attention_network_task	up	right	incongruent	-1	n/a	s635
329.063728	1.7	0.0	89.0	double	attention_network_task	up	left	incongruent	-1	n/a	s635
331.667728	1.7	0.0	89.0	spatial	attention_network_task	down	left	incongruent	-1	n/a	s635
334.270864	1.7	0.0	71.0	double	attention_network_task	up	right	congruent	89	1.122	s635
336.876	1.7	1.0	89.0	double	attention_network_task	up	left	incongruent	89	0.996	s635
339.479864	1.7	1.0	71.0	double	attention_network_task	up	right	incongruent	71	1.315	s635
342.083	1.7	0.0	89.0	spatial	attention_network_task	up	left	congruent	71	0.928	s635
344.685728	1.7	1.0	71.0	double	attention_network_task	down	right	congruent	71	0.83	s635
