onset	duration	correct	correct_response	cue	experiment_exp_id	flanker_location	flanker_middle_direction	flanker_type	key_press	response_time	worker_id
3.5150479999999997	1.7	1.0	89.0	spatial	attention_network_task	up	left	incongruent	89	0.606	s601
6.124864	1.7	1.0	89.0	double	attention_network_task	up	left	incongruent	89	0.56	s601
8.732728	1.7	1.0	89.0	double	attention_network_task	down	left	incongruent	89	0.704	s601
11.342728	1.7	1.0	71.0	double	attention_network_task	up	right	incongruent	71	0.599	s601
13.949	1.7	1.0	89.0	double	attention_network_task	down	left	congruent	89	0.532	s601
16.557	1.7	1.0	89.0	spatial	attention_network_task	down	left	incongruent	89	0.72	s601
19.164728	1.7	0.0	71.0	spatial	attention_network_task	down	right	congruent	89	0.701	s601
21.773	1.7	1.0	71.0	spatial	attention_network_task	down	right	congruent	71	0.949	s601
24.381	1.7	1.0	71.0	spatial	attention_network_task	down	right	incongruent	71	0.837	s601
26.993728	1.7	1.0	71.0	double	attention_network_task	up	right	congruent	71	0.66	s601
29.606	1.7	1.0	71.0	spatial	attention_network_task	down	right	incongruent	71	0.578	s601
32.219864	1.7	1.0	89.0	spatial	attention_network_task	down	left	congruent	89	0.774	s601
34.828728000000005	1.7	1.0	71.0	spatial	attention_network_task	down	right	congruent	71	0.79	s601
37.437	1.7	1.0	89.0	spatial	attention_network_task	down	left	congruent	89	1.057	s601
40.045	1.7	1.0	71.0	double	attention_network_task	down	right	incongruent	71	0.71	s601
42.654	1.7	1.0	89.0	double	attention_network_task	down	left	congruent	89	0.519	s601
45.267	1.7	1.0	89.0	spatial	attention_network_task	up	left	incongruent	89	0.884	s601
47.879	1.7	1.0	71.0	double	attention_network_task	down	right	congruent	71	0.664	s601
50.493	1.7	1.0	71.0	spatial	attention_network_task	down	right	incongruent	71	0.591	s601
53.104728	1.7	1.0	89.0	double	attention_network_task	up	left	congruent	89	0.516	s601
55.715864	1.7	1.0	71.0	double	attention_network_task	up	right	incongruent	71	0.644	s601
58.327912	1.7	1.0	71.0	double	attention_network_task	up	right	incongruent	71	0.595	s601
60.935728000000005	1.7	1.0	71.0	spatial	attention_network_task	down	right	congruent	71	0.656	s601
63.544864000000004	1.7	1.0	89.0	spatial	attention_network_task	down	left	congruent	89	0.62	s601
66.154864	1.7	1.0	89.0	double	attention_network_task	down	left	congruent	89	1.528	s601
68.762	1.7	1.0	71.0	double	attention_network_task	down	right	congruent	71	0.504	s601
71.369	1.7	1.0	89.0	spatial	attention_network_task	up	left	incongruent	89	0.521	s601
73.981	1.7	1.0	71.0	spatial	attention_network_task	down	right	congruent	71	0.512	s601
76.585	1.7	1.0	89.0	double	attention_network_task	down	left	incongruent	89	0.67	s601
79.198864	1.7	1.0	89.0	spatial	attention_network_task	down	left	incongruent	89	0.773	s601
81.806728	1.7	1.0	89.0	double	attention_network_task	up	left	incongruent	89	0.601	s601
84.414864	1.7	1.0	89.0	spatial	attention_network_task	up	left	congruent	89	0.442	s601
87.023864	1.7	1.0	71.0	double	attention_network_task	up	right	congruent	71	0.723	s601
89.636	1.7	0.0	89.0	double	attention_network_task	down	left	incongruent	71	0.394	s601
92.244	1.7	1.0	71.0	spatial	attention_network_task	up	right	congruent	71	0.656	s601
94.855592	1.7	0.0	71.0	double	attention_network_task	up	right	congruent	89	1.146	s601
97.465456	1.7	0.0	89.0	double	attention_network_task	up	left	congruent	71	1.384	s601
100.073592	1.7	1.0	71.0	spatial	attention_network_task	up	right	incongruent	71	0.895	s601
102.682	1.7	1.0	71.0	spatial	attention_network_task	down	right	congruent	71	0.73	s601
105.293592	1.7	1.0	71.0	double	attention_network_task	up	right	congruent	71	1.612	s601
107.903	1.7	1.0	89.0	spatial	attention_network_task	down	left	congruent	89	0.572	s601
110.516592	1.7	1.0	71.0	spatial	attention_network_task	up	right	congruent	71	0.684	s601
113.129	1.7	1.0	89.0	spatial	attention_network_task	up	left	incongruent	89	1.335	s601
115.738	1.7	0.0	71.0	spatial	attention_network_task	up	right	incongruent	-1	n/a	s601
118.34559200000001	1.7	0.0	89.0	spatial	attention_network_task	up	left	incongruent	-1	n/a	s601
120.956864	1.7	0.0	71.0	spatial	attention_network_task	up	right	incongruent	-1	n/a	s601
123.567728	1.7	1.0	89.0	double	attention_network_task	up	left	incongruent	89	0.607	s601
126.180456	1.7	1.0	71.0	double	attention_network_task	down	right	incongruent	71	0.521	s601
128.788728	1.7	1.0	89.0	spatial	attention_network_task	down	left	incongruent	89	0.546	s601
131.398	1.7	1.0	89.0	spatial	attention_network_task	down	left	incongruent	89	0.513	s601
134.004592	1.7	1.0	71.0	spatial	attention_network_task	up	right	incongruent	71	0.434	s601
136.613	1.7	1.0	71.0	spatial	attention_network_task	up	right	congruent	71	0.398	s601
139.221	1.7	1.0	89.0	double	attention_network_task	down	left	congruent	89	0.488	s601
141.829456	1.7	1.0	89.0	double	attention_network_task	down	left	incongruent	89	0.426	s601
144.437592	1.7	1.0	71.0	spatial	attention_network_task	down	right	congruent	71	0.564	s601
147.046	1.7	1.0	89.0	spatial	attention_network_task	up	left	congruent	89	0.525	s601
149.657864	1.7	1.0	71.0	spatial	attention_network_task	up	right	congruent	71	0.525	s601
152.265184	1.7	1.0	71.0	spatial	attention_network_task	down	right	incongruent	71	0.671	s601
154.875864	1.7	1.0	89.0	double	attention_network_task	down	left	congruent	89	0.577	s601
157.483	1.7	1.0	71.0	spatial	attention_network_task	down	right	congruent	71	0.947	s601
160.09186400000002	1.7	1.0	71.0	double	attention_network_task	down	right	incongruent	71	0.58	s601
162.699864	1.7	1.0	71.0	spatial	attention_network_task	down	right	incongruent	71	0.971	s601
165.312864	1.7	1.0	71.0	double	attention_network_task	down	right	incongruent	71	0.556	s601
167.920456	1.7	1.0	71.0	spatial	attention_network_task	up	right	congruent	71	0.702	s601
181.041	1.7	1.0	71.0	spatial	attention_network_task	up	right	congruent	71	0.433	s601
183.649728	1.7	1.0	89.0	double	attention_network_task	down	left	incongruent	89	0.662	s601
186.258	1.7	1.0	89.0	spatial	attention_network_task	up	left	congruent	89	0.594	s601
188.865864	1.7	1.0	89.0	spatial	attention_network_task	up	left	congruent	89	0.441	s601
191.473592	1.7	1.0	71.0	double	attention_network_task	up	right	incongruent	71	0.57	s601
194.081456	1.7	1.0	89.0	double	attention_network_task	up	left	congruent	89	0.565	s601
196.69	1.7	1.0	71.0	double	attention_network_task	up	right	incongruent	71	0.404	s601
199.298864	1.7	1.0	71.0	spatial	attention_network_task	up	right	incongruent	71	0.639	s601
201.905864	1.7	0.0	71.0	double	attention_network_task	up	right	incongruent	89	0.122	s601
204.513864	1.7	1.0	71.0	spatial	attention_network_task	down	right	incongruent	71	0.717	s601
207.121864	1.7	1.0	89.0	double	attention_network_task	down	left	congruent	89	0.68	s601
209.729728	1.7	1.0	71.0	spatial	attention_network_task	down	right	incongruent	71	0.549	s601
212.338864	1.7	1.0	89.0	spatial	attention_network_task	up	left	incongruent	89	0.444	s601
214.945592	1.7	0.0	89.0	spatial	attention_network_task	down	left	incongruent	71	0.773	s601
217.56	1.7	1.0	89.0	double	attention_network_task	up	left	incongruent	89	1.764	s601
220.172864	1.7	1.0	71.0	double	attention_network_task	down	right	congruent	71	0.582	s601
222.781	1.7	1.0	71.0	spatial	attention_network_task	up	right	congruent	71	0.628	s601
225.388864	1.7	1.0	89.0	double	attention_network_task	up	left	incongruent	89	1.073	s601
227.997048	1.7	1.0	71.0	spatial	attention_network_task	up	right	congruent	71	0.547	s601
230.609728	1.7	1.0	71.0	double	attention_network_task	down	right	congruent	71	0.582	s601
233.218864	1.7	1.0	71.0	double	attention_network_task	down	right	congruent	71	0.571	s601
235.833	1.7	1.0	89.0	double	attention_network_task	down	left	incongruent	89	0.683	s601
238.445864	1.7	1.0	89.0	spatial	attention_network_task	down	left	incongruent	89	0.863	s601
241.059	1.7	1.0	89.0	double	attention_network_task	up	left	congruent	89	0.482	s601
243.666864	1.7	1.0	89.0	spatial	attention_network_task	up	left	incongruent	89	0.482	s601
246.274728	1.7	1.0	89.0	double	attention_network_task	down	left	incongruent	89	1.473	s601
248.883728	1.7	1.0	71.0	spatial	attention_network_task	down	right	incongruent	71	0.63	s601
251.501864	1.7	0.0	89.0	double	attention_network_task	up	left	congruent	71	1.207	s601
254.116	1.7	1.0	71.0	double	attention_network_task	up	right	incongruent	71	0.599	s601
256.728864	1.7	0.0	71.0	double	attention_network_task	down	right	incongruent	89	1.366	s601
259.349	1.7	1.0	89.0	spatial	attention_network_task	down	left	congruent	89	0.499	s601
261.955728	1.7	1.0	71.0	double	attention_network_task	up	right	congruent	71	1.276	s601
264.565	1.7	1.0	89.0	spatial	attention_network_task	up	left	incongruent	89	0.679	s601
267.179	1.7	1.0	71.0	spatial	attention_network_task	up	right	incongruent	71	0.849	s601
269.795864	1.7	1.0	89.0	spatial	attention_network_task	down	left	congruent	89	0.783	s601
272.40972800000003	1.7	1.0	89.0	spatial	attention_network_task	up	left	congruent	89	1.05	s601
275.029592	1.7	1.0	71.0	double	attention_network_task	down	right	incongruent	71	0.979	s601
277.643	1.7	1.0	71.0	double	attention_network_task	up	right	congruent	71	0.624	s601
280.257864	1.7	1.0	89.0	double	attention_network_task	up	left	congruent	89	0.873	s601
282.867864	1.7	1.0	89.0	spatial	attention_network_task	up	left	congruent	89	1.35	s601
285.477	1.7	1.0	71.0	double	attention_network_task	up	right	congruent	71	0.571	s601
288.089592	1.7	0.0	71.0	double	attention_network_task	up	right	incongruent	-1	n/a	s601
290.708456	1.7	1.0	89.0	spatial	attention_network_task	down	left	congruent	89	0.598	s601
293.327864	1.7	1.0	89.0	spatial	attention_network_task	down	left	congruent	89	0.555	s601
295.94586400000003	1.7	0.0	89.0	spatial	attention_network_task	up	left	congruent	-1	n/a	s601
298.559	1.7	1.0	89.0	spatial	attention_network_task	down	left	incongruent	89	0.556	s601
301.179	1.7	1.0	71.0	double	attention_network_task	down	right	congruent	71	1.632	s601
303.796864	1.7	1.0	89.0	double	attention_network_task	up	left	congruent	89	0.684	s601
306.411	1.7	1.0	89.0	double	attention_network_task	up	left	congruent	89	0.644	s601
309.029864	1.7	1.0	71.0	double	attention_network_task	down	right	congruent	71	0.734	s601
311.643	1.7	1.0	71.0	double	attention_network_task	down	right	congruent	71	1.803	s601
314.261592	1.7	1.0	89.0	spatial	attention_network_task	up	left	congruent	89	0.56	s601
316.875	1.7	1.0	89.0	spatial	attention_network_task	down	left	incongruent	89	0.684	s601
319.493184	1.7	1.0	89.0	double	attention_network_task	down	left	incongruent	89	0.658	s601
322.11132000000003	1.7	1.0	71.0	spatial	attention_network_task	down	right	congruent	71	0.571	s601
324.726	1.7	0.0	71.0	spatial	attention_network_task	down	right	congruent	89	0.662	s601
327.34486400000003	1.7	1.0	71.0	spatial	attention_network_task	up	right	congruent	71	1.228	s601
329.963864	1.7	0.0	89.0	double	attention_network_task	up	left	incongruent	-1	n/a	s601
332.581864	1.7	1.0	89.0	double	attention_network_task	up	left	incongruent	89	0.584	s601
335.199	1.7	0.0	89.0	double	attention_network_task	up	left	incongruent	-1	n/a	s601
337.813864	1.7	1.0	71.0	spatial	attention_network_task	up	right	incongruent	71	1.857	s601
340.427048	1.7	1.0	71.0	spatial	attention_network_task	up	right	incongruent	71	0.443	s601
343.046864	1.7	1.0	71.0	double	attention_network_task	down	right	incongruent	71	0.73	s601
345.664592	1.7	1.0	71.0	double	attention_network_task	down	right	incongruent	71	0.745	s601
