onset	duration	block_duration	movement_onset	planning	condition	exp_stage	experiment_exp_id	key_press	problem_id	response_time	trial_id	trial_type	worker_id	junk
3.019	2.287	2.287	5.306	1	UA_with_intermediate	practice	ward_and_allport	71	0.0	2.287	to_hand	poldrack-single-stim	s641	False
5.308	0.1	0.513	5.821	0	UA_with_intermediate	practice	ward_and_allport	82	0.0	0.513	to_board	poldrack-single-stim	s641	False
5.823	0.1	0.456	6.279	0	UA_with_intermediate	practice	ward_and_allport	71	0.0	0.456	to_hand	poldrack-single-stim	s641	False
6.281	0.1	0.404	6.685	0	UA_with_intermediate	practice	ward_and_allport	89	0.0	0.404	to_board	poldrack-single-stim	s641	False
6.687	0.1	0.428	7.115	0	UA_with_intermediate	practice	ward_and_allport	82	0.0	0.428	to_hand	poldrack-single-stim	s641	False
7.117	0.1	0.344	7.461	0	UA_with_intermediate	practice	ward_and_allport	89	0.0	0.344	to_board	poldrack-single-stim	s641	False
7.469	1.0	2.5	7.468	0	UA_with_intermediate	practice	ward_and_allport	-1	0.0	n/a	feedback	poldrack-single-stim	s641	False
9.972	2.344	2.344	12.316	1	UA_with_intermediate	practice	ward_and_allport	89	1.0	2.344	to_hand	poldrack-single-stim	s641	False
12.317	0.1	0.274	12.591	0	UA_with_intermediate	practice	ward_and_allport	82	1.0	0.274	to_board	poldrack-single-stim	s641	False
12.594	0.1	0.432	13.026	0	UA_with_intermediate	practice	ward_and_allport	71	1.0	0.432	to_hand	poldrack-single-stim	s641	False
13.027	0.1	0.403	13.43	0	UA_with_intermediate	practice	ward_and_allport	89	1.0	0.403	to_board	poldrack-single-stim	s641	False
13.43	0.1	0.366	13.796	0	UA_with_intermediate	practice	ward_and_allport	82	1.0	0.366	to_hand	poldrack-single-stim	s641	False
13.798	0.1	0.369	14.167	0	UA_with_intermediate	practice	ward_and_allport	89	1.0	0.369	to_board	poldrack-single-stim	s641	False
14.173	1.0	2.1	14.172	0	UA_with_intermediate	practice	ward_and_allport	-1	1.0	n/a	feedback	poldrack-single-stim	s641	False
16.275	2.345	2.345	18.62	1	UA_without_intermediate	practice	ward_and_allport	82	2.0	2.345	to_hand	poldrack-single-stim	s641	False
18.621	0.1	0.351	18.972	0	UA_without_intermediate	practice	ward_and_allport	89	2.0	0.351	to_board	poldrack-single-stim	s641	False
18.974	0.1	1.057	20.031	0	UA_without_intermediate	practice	ward_and_allport	71	2.0	1.057	to_hand	poldrack-single-stim	s641	False
20.031	0.1	0.393	20.424	0	UA_without_intermediate	practice	ward_and_allport	89	2.0	0.393	to_board	poldrack-single-stim	s641	False
20.426	0.1	0.725	21.151	0	UA_without_intermediate	practice	ward_and_allport	71	2.0	0.725	to_hand	poldrack-single-stim	s641	False
21.152	0.1	0.246	21.398	0	UA_without_intermediate	practice	ward_and_allport	89	2.0	0.246	to_board	poldrack-single-stim	s641	False
21.405	1.0	2.2	21.404	0	UA_without_intermediate	practice	ward_and_allport	-1	2.0	n/a	feedback	poldrack-single-stim	s641	False
23.608	2.196	2.196	25.804	1	UA_without_intermediate	practice	ward_and_allport	71	3.0	2.196	to_hand	poldrack-single-stim	s641	False
25.805	0.1	0.29	26.095	0	UA_without_intermediate	practice	ward_and_allport	89	3.0	0.29	to_board	poldrack-single-stim	s641	False
26.097	0.1	0.142	26.239	0	UA_without_intermediate	practice	ward_and_allport	89	3.0	0.142	to_hand	poldrack-single-stim	s641	False
26.241	0.1	0.985	27.226	0	UA_without_intermediate	practice	ward_and_allport	89	3.0	0.985	to_board	poldrack-single-stim	s641	False
27.228	0.1	0.097	27.325	0	UA_without_intermediate	practice	ward_and_allport	89	3.0	0.097	to_hand	poldrack-single-stim	s641	False
27.326	0.1	0.449	27.775	0	UA_without_intermediate	practice	ward_and_allport	89	3.0	0.449	to_board	poldrack-single-stim	s641	False
27.777	0.1	0.813	28.59	0	UA_without_intermediate	practice	ward_and_allport	71	3.0	0.813	to_hand	poldrack-single-stim	s641	False
28.591	0.1	0.362	28.953	0	UA_without_intermediate	practice	ward_and_allport	89	3.0	0.362	to_board	poldrack-single-stim	s641	False
28.956	0.1	1.366	30.322	0	UA_without_intermediate	practice	ward_and_allport	89	3.0	1.366	to_hand	poldrack-single-stim	s641	False
30.323	0.1	0.213	30.536	0	UA_without_intermediate	practice	ward_and_allport	71	3.0	0.213	to_board	poldrack-single-stim	s641	False
30.538	0.1	0.448	30.986	0	UA_without_intermediate	practice	ward_and_allport	82	3.0	0.448	to_hand	poldrack-single-stim	s641	False
30.988	0.1	0.325	31.313	0	UA_without_intermediate	practice	ward_and_allport	89	3.0	0.325	to_board	poldrack-single-stim	s641	False
31.315	0.1	0.381	31.696	0	UA_without_intermediate	practice	ward_and_allport	71	3.0	0.381	to_hand	poldrack-single-stim	s641	False
31.697	0.1	0.3	31.997	0	UA_without_intermediate	practice	ward_and_allport	89	3.0	0.3	to_board	poldrack-single-stim	s641	False
32.001	1.0	2.0	32.0	0	UA_without_intermediate	practice	ward_and_allport	-1	3.0	n/a	feedback	poldrack-single-stim	s641	False
36.014	2.316	2.316	38.33	1	PA_without_intermediate	test	ward_and_allport	82	0.0	2.316	to_hand	poldrack-single-stim	s641	False
38.332	0.1	0.654	38.986	0	PA_without_intermediate	test	ward_and_allport	89	0.0	0.654	to_board	poldrack-single-stim	s641	False
38.988	0.1	1.024	40.012	0	PA_without_intermediate	test	ward_and_allport	82	0.0	1.024	to_hand	poldrack-single-stim	s641	False
40.014	0.1	0.293	40.307	0	PA_without_intermediate	test	ward_and_allport	71	0.0	0.293	to_board	poldrack-single-stim	s641	False
40.31	0.1	0.366	40.676	0	PA_without_intermediate	test	ward_and_allport	82	0.0	0.366	to_hand	poldrack-single-stim	s641	False
40.677	0.1	0.293	40.97	0	PA_without_intermediate	test	ward_and_allport	89	0.0	0.293	to_board	poldrack-single-stim	s641	False
40.977	1.0	3.088	40.976	0	PA_without_intermediate	test	ward_and_allport	-1	0.0	n/a	feedback	poldrack-single-stim	s641	False
44.067	1.302	1.302	45.369	1	PA_with_intermediate	test	ward_and_allport	71	1.0	1.302	to_hand	poldrack-single-stim	s641	False
45.37	0.1	1.075	46.445	0	PA_with_intermediate	test	ward_and_allport	82	1.0	1.075	to_board	poldrack-single-stim	s641	False
46.448	0.1	0.356	46.804	0	PA_with_intermediate	test	ward_and_allport	71	1.0	0.356	to_hand	poldrack-single-stim	s641	False
46.805	0.1	0.311	47.116	0	PA_with_intermediate	test	ward_and_allport	89	1.0	0.311	to_board	poldrack-single-stim	s641	False
47.119	0.1	0.498	47.617	0	PA_with_intermediate	test	ward_and_allport	82	1.0	0.498	to_hand	poldrack-single-stim	s641	False
47.618	0.1	0.327	47.945	0	PA_with_intermediate	test	ward_and_allport	89	1.0	0.327	to_board	poldrack-single-stim	s641	False
47.95	1.0	2.0	47.949	0	PA_with_intermediate	test	ward_and_allport	-1	1.0	n/a	feedback	poldrack-single-stim	s641	False
49.954	1.413	1.413	51.367	1	PA_without_intermediate	test	ward_and_allport	71	2.0	1.413	to_hand	poldrack-single-stim	s641	False
51.368	0.1	0.394	51.762	0	PA_without_intermediate	test	ward_and_allport	89	2.0	0.394	to_board	poldrack-single-stim	s641	False
51.765	0.1	0.365	52.13	0	PA_without_intermediate	test	ward_and_allport	71	2.0	0.365	to_hand	poldrack-single-stim	s641	False
52.131	0.1	0.304	52.435	0	PA_without_intermediate	test	ward_and_allport	89	2.0	0.304	to_board	poldrack-single-stim	s641	False
52.437	0.1	0.43	52.867	0	PA_without_intermediate	test	ward_and_allport	71	2.0	0.43	to_hand	poldrack-single-stim	s641	False
52.868	0.1	0.381	53.249	0	PA_without_intermediate	test	ward_and_allport	82	2.0	0.381	to_board	poldrack-single-stim	s641	False
53.255	1.0	2.0	53.254	0	PA_without_intermediate	test	ward_and_allport	-1	2.0	n/a	feedback	poldrack-single-stim	s641	False
55.259	0.749	0.749	56.008	1	PA_without_intermediate	test	ward_and_allport	82	3.0	0.749	to_hand	poldrack-single-stim	s641	False
56.009	0.1	0.647	56.656	0	PA_without_intermediate	test	ward_and_allport	71	3.0	0.647	to_board	poldrack-single-stim	s641	False
56.659	0.1	0.477	57.136	0	PA_without_intermediate	test	ward_and_allport	82	3.0	0.477	to_hand	poldrack-single-stim	s641	False
57.137	0.1	0.434	57.571	0	PA_without_intermediate	test	ward_and_allport	89	3.0	0.434	to_board	poldrack-single-stim	s641	False
57.574	0.1	0.353	57.927	0	PA_without_intermediate	test	ward_and_allport	82	3.0	0.353	to_hand	poldrack-single-stim	s641	False
57.928	0.1	0.314	58.242	0	PA_without_intermediate	test	ward_and_allport	71	3.0	0.314	to_board	poldrack-single-stim	s641	False
58.25	1.0	2.0	58.249	0	PA_without_intermediate	test	ward_and_allport	-1	3.0	n/a	feedback	poldrack-single-stim	s641	False
60.254	1.205	1.205	61.459	1	PA_with_intermediate	test	ward_and_allport	71	4.0	1.205	to_hand	poldrack-single-stim	s641	False
61.461	0.1	0.349	61.81	0	PA_with_intermediate	test	ward_and_allport	82	4.0	0.349	to_board	poldrack-single-stim	s641	False
61.813	0.1	0.439	62.252	0	PA_with_intermediate	test	ward_and_allport	71	4.0	0.439	to_hand	poldrack-single-stim	s641	False
62.253	0.1	0.314	62.567	0	PA_with_intermediate	test	ward_and_allport	89	4.0	0.314	to_board	poldrack-single-stim	s641	False
62.571	0.1	0.371	62.942	0	PA_with_intermediate	test	ward_and_allport	71	4.0	0.371	to_hand	poldrack-single-stim	s641	False
62.943	0.1	0.563	63.506	0	PA_with_intermediate	test	ward_and_allport	71	4.0	0.563	to_board	poldrack-single-stim	s641	False
63.509	0.1	0.485	63.994	0	PA_with_intermediate	test	ward_and_allport	82	4.0	0.485	to_hand	poldrack-single-stim	s641	False
63.996	0.1	0.258	64.254	0	PA_with_intermediate	test	ward_and_allport	71	4.0	0.258	to_board	poldrack-single-stim	s641	False
64.258	0.1	1.31	65.568	0	PA_with_intermediate	test	ward_and_allport	89	4.0	1.31	to_hand	poldrack-single-stim	s641	False
65.57	0.1	0.185	65.755	0	PA_with_intermediate	test	ward_and_allport	82	4.0	0.185	to_board	poldrack-single-stim	s641	False
65.763	1.0	2.544	65.762	0	PA_with_intermediate	test	ward_and_allport	-1	4.0	n/a	feedback	poldrack-single-stim	s641	False
68.312	0.956	0.956	69.268	1	PA_without_intermediate	test	ward_and_allport	82	5.0	0.956	to_hand	poldrack-single-stim	s641	False
69.27	0.1	0.345	69.615	0	PA_without_intermediate	test	ward_and_allport	71	5.0	0.345	to_board	poldrack-single-stim	s641	False
69.618	0.1	0.467	70.085	0	PA_without_intermediate	test	ward_and_allport	82	5.0	0.467	to_hand	poldrack-single-stim	s641	False
70.087	0.1	0.333	70.42	0	PA_without_intermediate	test	ward_and_allport	71	5.0	0.333	to_board	poldrack-single-stim	s641	False
70.423	0.1	0.433	70.856	0	PA_without_intermediate	test	ward_and_allport	82	5.0	0.433	to_hand	poldrack-single-stim	s641	False
70.858	0.1	0.32	71.178	0	PA_without_intermediate	test	ward_and_allport	89	5.0	0.32	to_board	poldrack-single-stim	s641	False
71.184	1.0	2.272	71.183	0	PA_without_intermediate	test	ward_and_allport	-1	5.0	n/a	feedback	poldrack-single-stim	s641	False
73.46	1.161	1.161	74.621	1	PA_with_intermediate	test	ward_and_allport	82	6.0	1.161	to_hand	poldrack-single-stim	s641	False
74.622	0.1	2.074	76.696	0	PA_with_intermediate	test	ward_and_allport	89	6.0	2.074	to_board	poldrack-single-stim	s641	False
76.7	0.1	0.769	77.469	0	PA_with_intermediate	test	ward_and_allport	82	6.0	0.769	to_hand	poldrack-single-stim	s641	False
77.47	0.1	0.25	77.72	0	PA_with_intermediate	test	ward_and_allport	71	6.0	0.25	to_board	poldrack-single-stim	s641	False
77.723	0.1	0.349	78.072	0	PA_with_intermediate	test	ward_and_allport	89	6.0	0.349	to_hand	poldrack-single-stim	s641	False
78.073	0.1	0.462	78.535	0	PA_with_intermediate	test	ward_and_allport	71	6.0	0.462	to_board	poldrack-single-stim	s641	False
78.542	1.0	4.04	78.541	0	PA_with_intermediate	test	ward_and_allport	-1	6.0	n/a	feedback	poldrack-single-stim	s641	False
82.586	1.547	1.547	84.133	1	PA_with_intermediate	test	ward_and_allport	82	7.0	1.547	to_hand	poldrack-single-stim	s641	False
84.134	0.1	0.268	84.402	0	PA_with_intermediate	test	ward_and_allport	89	7.0	0.268	to_board	poldrack-single-stim	s641	False
84.406	0.1	0.294	84.7	0	PA_with_intermediate	test	ward_and_allport	82	7.0	0.294	to_hand	poldrack-single-stim	s641	False
84.701	0.1	0.353	85.054	0	PA_with_intermediate	test	ward_and_allport	71	7.0	0.353	to_board	poldrack-single-stim	s641	False
85.058	0.1	0.533	85.591	0	PA_with_intermediate	test	ward_and_allport	89	7.0	0.533	to_hand	poldrack-single-stim	s641	False
85.592	0.1	0.273	85.865	0	PA_with_intermediate	test	ward_and_allport	82	7.0	0.273	to_board	poldrack-single-stim	s641	False
85.868	0.1	0.277	86.145	0	PA_with_intermediate	test	ward_and_allport	71	7.0	0.277	to_hand	poldrack-single-stim	s641	False
86.146	0.1	0.621	86.767	0	PA_with_intermediate	test	ward_and_allport	71	7.0	0.621	to_board	poldrack-single-stim	s641	False
86.771	0.1	0.305	87.076	0	PA_with_intermediate	test	ward_and_allport	82	7.0	0.305	to_hand	poldrack-single-stim	s641	False
87.077	0.1	0.185	87.262	0	PA_with_intermediate	test	ward_and_allport	71	7.0	0.185	to_board	poldrack-single-stim	s641	False
87.269	1.0	2.272	87.268	0	PA_with_intermediate	test	ward_and_allport	-1	7.0	n/a	feedback	poldrack-single-stim	s641	False
89.546	0.828	0.828	90.374	1	PA_with_intermediate	test	ward_and_allport	89	8.0	0.828	to_hand	poldrack-single-stim	s641	False
90.375	0.1	0.765	91.14	0	PA_with_intermediate	test	ward_and_allport	71	8.0	0.765	to_board	poldrack-single-stim	s641	False
91.144	0.1	0.356	91.5	0	PA_with_intermediate	test	ward_and_allport	89	8.0	0.356	to_hand	poldrack-single-stim	s641	False
91.502	0.1	0.307	91.809	0	PA_with_intermediate	test	ward_and_allport	82	8.0	0.307	to_board	poldrack-single-stim	s641	False
91.813	0.1	0.369	92.182	0	PA_with_intermediate	test	ward_and_allport	71	8.0	0.369	to_hand	poldrack-single-stim	s641	False
92.184	0.1	0.482	92.666	0	PA_with_intermediate	test	ward_and_allport	82	8.0	0.482	to_board	poldrack-single-stim	s641	False
92.675	1.0	2.136	92.674	0	PA_with_intermediate	test	ward_and_allport	-1	8.0	n/a	feedback	poldrack-single-stim	s641	False
94.817	0.866	0.866	95.683	1	PA_with_intermediate	test	ward_and_allport	89	9.0	0.866	to_hand	poldrack-single-stim	s641	False
95.685	0.1	0.524	96.209	0	PA_with_intermediate	test	ward_and_allport	82	9.0	0.524	to_board	poldrack-single-stim	s641	False
96.214	0.1	0.416	96.63	0	PA_with_intermediate	test	ward_and_allport	89	9.0	0.416	to_hand	poldrack-single-stim	s641	False
96.631	0.1	0.255	96.886	0	PA_with_intermediate	test	ward_and_allport	71	9.0	0.255	to_board	poldrack-single-stim	s641	False
96.891	0.1	0.339	97.23	0	PA_with_intermediate	test	ward_and_allport	82	9.0	0.339	to_hand	poldrack-single-stim	s641	False
97.232	0.1	0.341	97.573	0	PA_with_intermediate	test	ward_and_allport	71	9.0	0.341	to_board	poldrack-single-stim	s641	False
97.582	1.0	2.0	97.581	0	PA_with_intermediate	test	ward_and_allport	-1	9.0	n/a	feedback	poldrack-single-stim	s641	False
99.588	1.133	1.133	100.721	1	PA_with_intermediate	test	ward_and_allport	82	10.0	1.133	to_hand	poldrack-single-stim	s641	False
100.723	0.1	0.611	101.334	0	PA_with_intermediate	test	ward_and_allport	71	10.0	0.611	to_board	poldrack-single-stim	s641	False
101.338	0.1	0.722	102.06	0	PA_with_intermediate	test	ward_and_allport	82	10.0	0.722	to_hand	poldrack-single-stim	s641	False
102.062	0.1	0.716	102.778	0	PA_with_intermediate	test	ward_and_allport	89	10.0	0.716	to_board	poldrack-single-stim	s641	False
102.783	0.1	0.524	103.307	0	PA_with_intermediate	test	ward_and_allport	71	10.0	0.524	to_hand	poldrack-single-stim	s641	False
103.307	0.1	0.33	103.637	0	PA_with_intermediate	test	ward_and_allport	82	10.0	0.33	to_board	poldrack-single-stim	s641	False
103.646	1.0	2.0	103.645	0	PA_with_intermediate	test	ward_and_allport	-1	10.0	n/a	feedback	poldrack-single-stim	s641	False
105.652	0.857	0.857	106.509	1	PA_without_intermediate	test	ward_and_allport	82	11.0	0.857	to_hand	poldrack-single-stim	s641	False
106.51	0.1	0.373	106.883	0	PA_without_intermediate	test	ward_and_allport	89	11.0	0.373	to_board	poldrack-single-stim	s641	False
106.886	0.1	0.304	107.19	0	PA_without_intermediate	test	ward_and_allport	82	11.0	0.304	to_hand	poldrack-single-stim	s641	False
107.192	0.1	0.327	107.519	0	PA_without_intermediate	test	ward_and_allport	89	11.0	0.327	to_board	poldrack-single-stim	s641	False
107.524	0.1	0.661	108.185	0	PA_without_intermediate	test	ward_and_allport	82	11.0	0.661	to_hand	poldrack-single-stim	s641	False
108.185	0.1	0.237	108.422	0	PA_without_intermediate	test	ward_and_allport	71	11.0	0.237	to_board	poldrack-single-stim	s641	False
108.431	1.0	2.408	108.43	0	PA_without_intermediate	test	ward_and_allport	-1	11.0	n/a	feedback	poldrack-single-stim	s641	False
110.843	2.211	2.211	113.054	1	PA_with_intermediate	test	ward_and_allport	71	12.0	2.211	to_hand	poldrack-single-stim	s641	False
113.056	0.1	0.318	113.374	0	PA_with_intermediate	test	ward_and_allport	82	12.0	0.318	to_board	poldrack-single-stim	s641	False
113.378	0.1	0.72	114.098	0	PA_with_intermediate	test	ward_and_allport	71	12.0	0.72	to_hand	poldrack-single-stim	s641	False
114.099	0.1	0.314	114.413	0	PA_with_intermediate	test	ward_and_allport	89	12.0	0.314	to_board	poldrack-single-stim	s641	False
114.418	0.1	0.365	114.783	0	PA_with_intermediate	test	ward_and_allport	82	12.0	0.365	to_hand	poldrack-single-stim	s641	False
114.784	0.1	0.305	115.089	0	PA_with_intermediate	test	ward_and_allport	71	12.0	0.305	to_board	poldrack-single-stim	s641	False
115.098	1.0	3.768	115.097	0	PA_with_intermediate	test	ward_and_allport	-1	12.0	n/a	feedback	poldrack-single-stim	s641	False
118.872	0.831	0.831	119.703	1	PA_with_intermediate	test	ward_and_allport	71	13.0	0.831	to_hand	poldrack-single-stim	s641	False
119.704	0.1	0.591	120.295	0	PA_with_intermediate	test	ward_and_allport	82	13.0	0.591	to_board	poldrack-single-stim	s641	False
120.301	0.1	0.837	121.138	0	PA_with_intermediate	test	ward_and_allport	82	13.0	0.837	to_hand	poldrack-single-stim	s641	False
121.139	0.1	0.264	121.403	0	PA_with_intermediate	test	ward_and_allport	89	13.0	0.264	to_board	poldrack-single-stim	s641	False
121.408	0.1	0.414	121.822	0	PA_with_intermediate	test	ward_and_allport	71	13.0	0.414	to_hand	poldrack-single-stim	s641	False
121.823	0.1	0.313	122.136	0	PA_with_intermediate	test	ward_and_allport	82	13.0	0.313	to_board	poldrack-single-stim	s641	False
122.141	0.1	0.375	122.516	0	PA_with_intermediate	test	ward_and_allport	89	13.0	0.375	to_hand	poldrack-single-stim	s641	False
122.517	0.1	0.298	122.815	0	PA_with_intermediate	test	ward_and_allport	82	13.0	0.298	to_board	poldrack-single-stim	s641	False
122.824	1.0	2.68	122.823	0	PA_with_intermediate	test	ward_and_allport	-1	13.0	n/a	feedback	poldrack-single-stim	s641	False
125.509	1.171	1.171	126.68	1	PA_without_intermediate	test	ward_and_allport	82	14.0	1.171	to_hand	poldrack-single-stim	s641	False
126.682	0.1	0.475	127.157	0	PA_without_intermediate	test	ward_and_allport	71	14.0	0.475	to_board	poldrack-single-stim	s641	False
127.162	0.1	0.563	127.725	0	PA_without_intermediate	test	ward_and_allport	82	14.0	0.563	to_hand	poldrack-single-stim	s641	False
127.726	0.1	0.265	127.991	0	PA_without_intermediate	test	ward_and_allport	89	14.0	0.265	to_board	poldrack-single-stim	s641	False
127.996	0.1	0.329	128.325	0	PA_without_intermediate	test	ward_and_allport	82	14.0	0.329	to_hand	poldrack-single-stim	s641	False
128.327	0.1	0.236	128.563	0	PA_without_intermediate	test	ward_and_allport	71	14.0	0.236	to_board	poldrack-single-stim	s641	False
128.57	1.0	3.224	128.569	0	PA_without_intermediate	test	ward_and_allport	-1	14.0	n/a	feedback	poldrack-single-stim	s641	False
136.805	1.407	1.407	138.212	1	PA_without_intermediate	test	ward_and_allport	89	15.0	1.407	to_hand	poldrack-single-stim	s641	False
138.213	0.1	0.366	138.579	0	PA_without_intermediate	test	ward_and_allport	82	15.0	0.366	to_board	poldrack-single-stim	s641	False
138.585	0.1	0.424	139.009	0	PA_without_intermediate	test	ward_and_allport	89	15.0	0.424	to_hand	poldrack-single-stim	s641	False
139.01	0.1	0.358	139.368	0	PA_without_intermediate	test	ward_and_allport	82	15.0	0.358	to_board	poldrack-single-stim	s641	False
139.371	0.1	0.481	139.852	0	PA_without_intermediate	test	ward_and_allport	89	15.0	0.481	to_hand	poldrack-single-stim	s641	False
139.853	0.1	0.237	140.09	0	PA_without_intermediate	test	ward_and_allport	71	15.0	0.237	to_board	poldrack-single-stim	s641	False
140.1	1.0	3.36	140.099	0	PA_without_intermediate	test	ward_and_allport	-1	15.0	n/a	feedback	poldrack-single-stim	s641	False
143.466	0.825	0.825	144.291	1	PA_without_intermediate	test	ward_and_allport	82	16.0	0.825	to_hand	poldrack-single-stim	s641	False
144.292	0.1	0.301	144.593	0	PA_without_intermediate	test	ward_and_allport	89	16.0	0.301	to_board	poldrack-single-stim	s641	False
144.598	0.1	0.138	144.736	0	PA_without_intermediate	test	ward_and_allport	89	16.0	0.138	to_hand	poldrack-single-stim	s641	False
144.737	0.1	0.794	145.531	0	PA_without_intermediate	test	ward_and_allport	89	16.0	0.794	to_board	poldrack-single-stim	s641	False
145.537	0.1	0.456	145.993	0	PA_without_intermediate	test	ward_and_allport	82	16.0	0.456	to_hand	poldrack-single-stim	s641	False
145.994	0.1	0.496	146.49	0	PA_without_intermediate	test	ward_and_allport	71	16.0	0.496	to_board	poldrack-single-stim	s641	False
146.495	0.1	0.356	146.851	0	PA_without_intermediate	test	ward_and_allport	82	16.0	0.356	to_hand	poldrack-single-stim	s641	False
146.852	0.1	0.324	147.176	0	PA_without_intermediate	test	ward_and_allport	89	16.0	0.324	to_board	poldrack-single-stim	s641	False
147.185	1.0	2.0	147.184	0	PA_without_intermediate	test	ward_and_allport	-1	16.0	n/a	feedback	poldrack-single-stim	s641	False
149.191	1.584	1.584	150.775	1	PA_without_intermediate	test	ward_and_allport	71	17.0	1.584	to_hand	poldrack-single-stim	s641	False
150.776	0.1	0.314	151.09	0	PA_without_intermediate	test	ward_and_allport	89	17.0	0.314	to_board	poldrack-single-stim	s641	False
151.095	0.1	0.43	151.525	0	PA_without_intermediate	test	ward_and_allport	71	17.0	0.43	to_hand	poldrack-single-stim	s641	False
151.527	0.1	0.314	151.841	0	PA_without_intermediate	test	ward_and_allport	82	17.0	0.314	to_board	poldrack-single-stim	s641	False
151.846	0.1	0.606	152.452	0	PA_without_intermediate	test	ward_and_allport	71	17.0	0.606	to_hand	poldrack-single-stim	s641	False
152.453	0.1	0.26	152.713	0	PA_without_intermediate	test	ward_and_allport	89	17.0	0.26	to_board	poldrack-single-stim	s641	False
152.723	1.0	2.408	152.722	0	PA_without_intermediate	test	ward_and_allport	-1	17.0	n/a	feedback	poldrack-single-stim	s641	False
155.137	0.986	0.986	156.123	1	PA_with_intermediate	test	ward_and_allport	82	18.0	0.986	to_hand	poldrack-single-stim	s641	False
156.125	0.1	0.429	156.554	0	PA_with_intermediate	test	ward_and_allport	89	18.0	0.429	to_board	poldrack-single-stim	s641	False
156.56	0.1	0.944	157.504	0	PA_with_intermediate	test	ward_and_allport	89	18.0	0.944	to_hand	poldrack-single-stim	s641	False
157.506	0.1	0.233	157.739	0	PA_with_intermediate	test	ward_and_allport	71	18.0	0.233	to_board	poldrack-single-stim	s641	False
157.746	0.1	0.39	158.136	0	PA_with_intermediate	test	ward_and_allport	82	18.0	0.39	to_hand	poldrack-single-stim	s641	False
158.138	0.1	0.331	158.469	0	PA_with_intermediate	test	ward_and_allport	89	18.0	0.331	to_board	poldrack-single-stim	s641	False
158.475	0.1	0.519	158.994	0	PA_with_intermediate	test	ward_and_allport	71	18.0	0.519	to_hand	poldrack-single-stim	s641	False
158.996	0.1	0.309	159.305	0	PA_with_intermediate	test	ward_and_allport	89	18.0	0.309	to_board	poldrack-single-stim	s641	False
159.315	1.0	2.136	159.314	0	PA_with_intermediate	test	ward_and_allport	-1	18.0	n/a	feedback	poldrack-single-stim	s641	False
161.459	1.575	1.575	163.034	1	PA_without_intermediate	test	ward_and_allport	71	19.0	1.575	to_hand	poldrack-single-stim	s641	False
163.036	0.1	0.696	163.732	0	PA_without_intermediate	test	ward_and_allport	82	19.0	0.696	to_board	poldrack-single-stim	s641	False
163.738	0.1	0.285	164.023	0	PA_without_intermediate	test	ward_and_allport	71	19.0	0.285	to_hand	poldrack-single-stim	s641	False
164.024	0.1	0.303	164.327	0	PA_without_intermediate	test	ward_and_allport	82	19.0	0.303	to_board	poldrack-single-stim	s641	False
164.334	0.1	0.476	164.81	0	PA_without_intermediate	test	ward_and_allport	71	19.0	0.476	to_hand	poldrack-single-stim	s641	False
164.813	0.1	0.231	165.044	0	PA_without_intermediate	test	ward_and_allport	89	19.0	0.231	to_board	poldrack-single-stim	s641	False
165.054	1.0	5.128	165.053	0	PA_without_intermediate	test	ward_and_allport	-1	19.0	n/a	feedback	poldrack-single-stim	s641	False
170.189	0.954	0.954	171.143	1	PA_without_intermediate	test	ward_and_allport	89	20.0	0.954	to_hand	poldrack-single-stim	s641	False
171.145	0.1	0.375	171.52	0	PA_without_intermediate	test	ward_and_allport	71	20.0	0.375	to_board	poldrack-single-stim	s641	False
171.526	0.1	0.527	172.053	0	PA_without_intermediate	test	ward_and_allport	89	20.0	0.527	to_hand	poldrack-single-stim	s641	False
172.054	0.1	0.212	172.266	0	PA_without_intermediate	test	ward_and_allport	82	20.0	0.212	to_board	poldrack-single-stim	s641	False
172.272	0.1	0.342	172.614	0	PA_without_intermediate	test	ward_and_allport	89	20.0	0.342	to_hand	poldrack-single-stim	s641	False
172.615	0.1	0.196	172.811	0	PA_without_intermediate	test	ward_and_allport	71	20.0	0.196	to_board	poldrack-single-stim	s641	False
172.822	1.0	2.136	172.821	0	PA_without_intermediate	test	ward_and_allport	-1	20.0	n/a	feedback	poldrack-single-stim	s641	False
174.966	1.002	1.002	175.968	1	PA_without_intermediate	test	ward_and_allport	71	21.0	1.002	to_hand	poldrack-single-stim	s641	False
175.969	0.1	0.485	176.454	0	PA_without_intermediate	test	ward_and_allport	82	21.0	0.485	to_board	poldrack-single-stim	s641	False
176.46	0.1	0.388	176.848	0	PA_without_intermediate	test	ward_and_allport	71	21.0	0.388	to_hand	poldrack-single-stim	s641	False
176.848	0.1	0.331	177.179	0	PA_without_intermediate	test	ward_and_allport	89	21.0	0.331	to_board	poldrack-single-stim	s641	False
177.186	0.1	0.277	177.463	0	PA_without_intermediate	test	ward_and_allport	71	21.0	0.277	to_hand	poldrack-single-stim	s641	False
177.464	0.1	0.259	177.723	0	PA_without_intermediate	test	ward_and_allport	82	21.0	0.259	to_board	poldrack-single-stim	s641	False
177.732	1.0	5.264	177.731	0	PA_without_intermediate	test	ward_and_allport	-1	21.0	n/a	feedback	poldrack-single-stim	s641	False
183.003	1.252	1.252	184.255	1	PA_with_intermediate	test	ward_and_allport	71	22.0	1.252	to_hand	poldrack-single-stim	s641	False
184.256	0.1	0.384	184.64	0	PA_with_intermediate	test	ward_and_allport	82	22.0	0.384	to_board	poldrack-single-stim	s641	False
184.646	0.1	0.376	185.022	0	PA_with_intermediate	test	ward_and_allport	71	22.0	0.376	to_hand	poldrack-single-stim	s641	False
185.023	0.1	0.305	185.328	0	PA_with_intermediate	test	ward_and_allport	89	22.0	0.305	to_board	poldrack-single-stim	s641	False
185.335	0.1	0.294	185.629	0	PA_with_intermediate	test	ward_and_allport	71	22.0	0.294	to_hand	poldrack-single-stim	s641	False
185.63	0.1	0.786	186.416	0	PA_with_intermediate	test	ward_and_allport	71	22.0	0.786	to_board	poldrack-single-stim	s641	False
186.423	0.1	0.198	186.621	0	PA_with_intermediate	test	ward_and_allport	82	22.0	0.198	to_hand	poldrack-single-stim	s641	False
186.623	0.1	0.199	186.822	0	PA_with_intermediate	test	ward_and_allport	71	22.0	0.199	to_board	poldrack-single-stim	s641	False
186.833	1.0	4.04	186.832	0	PA_with_intermediate	test	ward_and_allport	-1	22.0	n/a	feedback	poldrack-single-stim	s641	False
190.881	1.466	1.466	192.347	1	PA_with_intermediate	test	ward_and_allport	89	23.0	1.466	to_hand	poldrack-single-stim	s641	False
192.349	0.1	0.294	192.643	0	PA_with_intermediate	test	ward_and_allport	82	23.0	0.294	to_board	poldrack-single-stim	s641	False
192.65	0.1	0.681	193.331	0	PA_with_intermediate	test	ward_and_allport	89	23.0	0.681	to_hand	poldrack-single-stim	s641	False
193.332	0.1	0.164	193.496	0	PA_with_intermediate	test	ward_and_allport	71	23.0	0.164	to_board	poldrack-single-stim	s641	False
193.502	0.1	0.384	193.886	0	PA_with_intermediate	test	ward_and_allport	82	23.0	0.384	to_hand	poldrack-single-stim	s641	False
193.887	0.1	0.348	194.235	0	PA_with_intermediate	test	ward_and_allport	89	23.0	0.348	to_board	poldrack-single-stim	s641	False
194.246	1.0	2.136	194.245	0	PA_with_intermediate	test	ward_and_allport	-1	23.0	n/a	feedback	poldrack-single-stim	s641	False
196.392	1.202	1.202	197.594	1	PA_with_intermediate	test	ward_and_allport	71	24.0	1.202	to_hand	poldrack-single-stim	s641	False
197.594	0.1	0.562	198.156	0	PA_with_intermediate	test	ward_and_allport	89	24.0	0.562	to_board	poldrack-single-stim	s641	False
198.162	0.1	0.34	198.502	0	PA_with_intermediate	test	ward_and_allport	71	24.0	0.34	to_hand	poldrack-single-stim	s641	False
198.504	0.1	0.497	199.001	0	PA_with_intermediate	test	ward_and_allport	82	24.0	0.497	to_board	poldrack-single-stim	s641	False
199.007	0.1	0.448	199.455	0	PA_with_intermediate	test	ward_and_allport	89	24.0	0.448	to_hand	poldrack-single-stim	s641	False
199.456	0.1	0.294	199.75	0	PA_with_intermediate	test	ward_and_allport	82	24.0	0.294	to_board	poldrack-single-stim	s641	False
199.762	1.0	2.408	199.761	0	PA_with_intermediate	test	ward_and_allport	-1	24.0	n/a	feedback	poldrack-single-stim	s641	False
202.178	1.336	1.336	203.514	1	PA_without_intermediate	test	ward_and_allport	89	25.0	1.336	to_hand	poldrack-single-stim	s641	False
203.515	0.1	0.254	203.769	0	PA_without_intermediate	test	ward_and_allport	71	25.0	0.254	to_board	poldrack-single-stim	s641	False
203.776	0.1	0.264	204.04	0	PA_without_intermediate	test	ward_and_allport	89	25.0	0.264	to_hand	poldrack-single-stim	s641	False
204.042	0.1	0.189	204.231	0	PA_without_intermediate	test	ward_and_allport	71	25.0	0.189	to_board	poldrack-single-stim	s641	False
204.238	0.1	0.497	204.735	0	PA_without_intermediate	test	ward_and_allport	89	25.0	0.497	to_hand	poldrack-single-stim	s641	False
204.736	0.1	0.22	204.956	0	PA_without_intermediate	test	ward_and_allport	82	25.0	0.22	to_board	poldrack-single-stim	s641	False
204.967	1.0	2.68	204.966	0	PA_without_intermediate	test	ward_and_allport	-1	25.0	n/a	feedback	poldrack-single-stim	s641	False
207.653	0.886	0.886	208.539	1	PA_with_intermediate	test	ward_and_allport	82	26.0	0.886	to_hand	poldrack-single-stim	s641	False
208.54	0.1	1.566	210.106	0	PA_with_intermediate	test	ward_and_allport	71	26.0	1.566	to_board	poldrack-single-stim	s641	False
210.112	0.1	0.328	210.44	0	PA_with_intermediate	test	ward_and_allport	82	26.0	0.328	to_hand	poldrack-single-stim	s641	False
210.441	0.1	0.507	210.948	0	PA_with_intermediate	test	ward_and_allport	89	26.0	0.507	to_board	poldrack-single-stim	s641	False
210.954	0.1	0.305	211.259	0	PA_with_intermediate	test	ward_and_allport	71	26.0	0.305	to_hand	poldrack-single-stim	s641	False
211.261	0.1	0.289	211.55	0	PA_with_intermediate	test	ward_and_allport	82	26.0	0.289	to_board	poldrack-single-stim	s641	False
211.561	1.0	4.72	211.56	0	PA_with_intermediate	test	ward_and_allport	-1	26.0	n/a	feedback	poldrack-single-stim	s641	False
216.289	0.772	0.772	217.061	1	PA_without_intermediate	test	ward_and_allport	71	27.0	0.772	to_hand	poldrack-single-stim	s641	False
217.062	0.1	0.478	217.54	0	PA_without_intermediate	test	ward_and_allport	89	27.0	0.478	to_board	poldrack-single-stim	s641	False
217.547	0.1	0.311	217.858	0	PA_without_intermediate	test	ward_and_allport	71	27.0	0.311	to_hand	poldrack-single-stim	s641	False
217.86	0.1	0.393	218.253	0	PA_without_intermediate	test	ward_and_allport	82	27.0	0.393	to_board	poldrack-single-stim	s641	False
218.261	0.1	0.262	218.523	0	PA_without_intermediate	test	ward_and_allport	71	27.0	0.262	to_hand	poldrack-single-stim	s641	False
218.525	0.1	0.226	218.751	0	PA_without_intermediate	test	ward_and_allport	89	27.0	0.226	to_board	poldrack-single-stim	s641	False
218.762	1.0	3.224	218.761	0	PA_without_intermediate	test	ward_and_allport	-1	27.0	n/a	feedback	poldrack-single-stim	s641	False
221.995	0.765	0.765	222.76	1	PA_without_intermediate	test	ward_and_allport	71	28.0	0.765	to_hand	poldrack-single-stim	s641	False
222.761	0.1	0.232	222.993	0	PA_without_intermediate	test	ward_and_allport	82	28.0	0.232	to_board	poldrack-single-stim	s641	False
223.001	0.1	0.285	223.286	0	PA_without_intermediate	test	ward_and_allport	71	28.0	0.285	to_hand	poldrack-single-stim	s641	False
223.287	0.1	0.335	223.622	0	PA_without_intermediate	test	ward_and_allport	82	28.0	0.335	to_board	poldrack-single-stim	s641	False
223.629	0.1	0.635	224.264	0	PA_without_intermediate	test	ward_and_allport	71	28.0	0.635	to_hand	poldrack-single-stim	s641	False
224.266	0.1	0.287	224.553	0	PA_without_intermediate	test	ward_and_allport	89	28.0	0.287	to_board	poldrack-single-stim	s641	False
224.564	1.0	2.272	224.563	0	PA_without_intermediate	test	ward_and_allport	-1	28.0	n/a	feedback	poldrack-single-stim	s641	False
226.841	1.103	1.103	227.944	1	PA_with_intermediate	test	ward_and_allport	89	29.0	1.103	to_hand	poldrack-single-stim	s641	False
227.945	0.1	0.467	228.412	0	PA_with_intermediate	test	ward_and_allport	71	29.0	0.467	to_board	poldrack-single-stim	s641	False
228.42	0.1	0.34	228.76	0	PA_with_intermediate	test	ward_and_allport	89	29.0	0.34	to_hand	poldrack-single-stim	s641	False
228.762	0.1	0.421	229.183	0	PA_with_intermediate	test	ward_and_allport	82	29.0	0.421	to_board	poldrack-single-stim	s641	False
229.189	0.1	0.285	229.474	0	PA_with_intermediate	test	ward_and_allport	71	29.0	0.285	to_hand	poldrack-single-stim	s641	False
229.476	0.1	0.29	229.766	0	PA_with_intermediate	test	ward_and_allport	82	29.0	0.29	to_board	poldrack-single-stim	s641	False
229.775	1.0	3.632	229.774	0	PA_with_intermediate	test	ward_and_allport	-1	29.0	n/a	feedback	poldrack-single-stim	s641	False
238.418	0.985	0.985	239.403	1	PA_without_intermediate	test	ward_and_allport	89	30.0	0.985	to_hand	poldrack-single-stim	s641	False
239.405	0.1	0.251	239.656	0	PA_without_intermediate	test	ward_and_allport	71	30.0	0.251	to_board	poldrack-single-stim	s641	False
239.664	0.1	0.347	240.011	0	PA_without_intermediate	test	ward_and_allport	89	30.0	0.347	to_hand	poldrack-single-stim	s641	False
240.012	0.1	0.3	240.312	0	PA_without_intermediate	test	ward_and_allport	82	30.0	0.3	to_board	poldrack-single-stim	s641	False
240.321	0.1	0.368	240.689	0	PA_without_intermediate	test	ward_and_allport	89	30.0	0.368	to_hand	poldrack-single-stim	s641	False
240.69	0.1	0.246	240.936	0	PA_without_intermediate	test	ward_and_allport	71	30.0	0.246	to_board	poldrack-single-stim	s641	False
240.949	1.0	2.408	240.948	0	PA_without_intermediate	test	ward_and_allport	-1	30.0	n/a	feedback	poldrack-single-stim	s641	False
243.368	0.896	0.896	244.264	1	PA_without_intermediate	test	ward_and_allport	71	31.0	0.896	to_hand	poldrack-single-stim	s641	False
244.265	0.1	0.566	244.831	0	PA_without_intermediate	test	ward_and_allport	89	31.0	0.566	to_board	poldrack-single-stim	s641	False
244.84	0.1	0.293	245.133	0	PA_without_intermediate	test	ward_and_allport	71	31.0	0.293	to_hand	poldrack-single-stim	s641	False
245.134	0.1	0.293	245.427	0	PA_without_intermediate	test	ward_and_allport	89	31.0	0.293	to_board	poldrack-single-stim	s641	False
245.433	0.1	0.329	245.762	0	PA_without_intermediate	test	ward_and_allport	71	31.0	0.329	to_hand	poldrack-single-stim	s641	False
245.764	0.1	0.249	246.013	0	PA_without_intermediate	test	ward_and_allport	82	31.0	0.249	to_board	poldrack-single-stim	s641	False
246.024	1.0	2.0	246.023	0	PA_without_intermediate	test	ward_and_allport	-1	31.0	n/a	feedback	poldrack-single-stim	s641	False
248.031	0.736	0.736	248.767	1	PA_with_intermediate	test	ward_and_allport	82	32.0	0.736	to_hand	poldrack-single-stim	s641	False
248.769	0.1	1.058	249.827	0	PA_with_intermediate	test	ward_and_allport	89	32.0	1.058	to_board	poldrack-single-stim	s641	False
249.834	0.1	0.797	250.631	0	PA_with_intermediate	test	ward_and_allport	82	32.0	0.797	to_hand	poldrack-single-stim	s641	False
250.632	0.1	0.188	250.82	0	PA_with_intermediate	test	ward_and_allport	71	32.0	0.188	to_board	poldrack-single-stim	s641	False
250.826	0.1	0.339	251.165	0	PA_with_intermediate	test	ward_and_allport	89	32.0	0.339	to_hand	poldrack-single-stim	s641	False
251.166	0.1	0.217	251.383	0	PA_with_intermediate	test	ward_and_allport	82	32.0	0.217	to_board	poldrack-single-stim	s641	False
251.393	1.0	2.0	251.392	0	PA_with_intermediate	test	ward_and_allport	-1	32.0	n/a	feedback	poldrack-single-stim	s641	False
253.4	0.89	0.89	254.29	1	PA_with_intermediate	test	ward_and_allport	89	33.0	0.89	to_hand	poldrack-single-stim	s641	False
254.291	0.1	0.749	255.04	0	PA_with_intermediate	test	ward_and_allport	82	33.0	0.749	to_board	poldrack-single-stim	s641	False
255.047	0.1	1.213	256.26	0	PA_with_intermediate	test	ward_and_allport	82	33.0	1.213	to_hand	poldrack-single-stim	s641	False
256.262	0.1	0.208	256.47	0	PA_with_intermediate	test	ward_and_allport	71	33.0	0.208	to_board	poldrack-single-stim	s641	False
256.477	0.1	0.412	256.889	0	PA_with_intermediate	test	ward_and_allport	89	33.0	0.412	to_hand	poldrack-single-stim	s641	False
256.891	0.1	0.204	257.095	0	PA_with_intermediate	test	ward_and_allport	82	33.0	0.204	to_board	poldrack-single-stim	s641	False
257.104	0.1	0.529	257.633	0	PA_with_intermediate	test	ward_and_allport	71	33.0	0.529	to_hand	poldrack-single-stim	s641	False
257.635	0.1	0.205	257.84	0	PA_with_intermediate	test	ward_and_allport	89	33.0	0.205	to_board	poldrack-single-stim	s641	False
257.853	1.0	2.0	257.852	0	PA_with_intermediate	test	ward_and_allport	-1	33.0	n/a	feedback	poldrack-single-stim	s641	False
259.861	0.813	0.813	260.674	1	PA_with_intermediate	test	ward_and_allport	89	34.0	0.813	to_hand	poldrack-single-stim	s641	False
260.676	0.1	0.738	261.414	0	PA_with_intermediate	test	ward_and_allport	82	34.0	0.738	to_board	poldrack-single-stim	s641	False
261.419	0.1	0.318	261.737	0	PA_with_intermediate	test	ward_and_allport	89	34.0	0.318	to_hand	poldrack-single-stim	s641	False
261.739	0.1	0.226	261.965	0	PA_with_intermediate	test	ward_and_allport	71	34.0	0.226	to_board	poldrack-single-stim	s641	False
261.971	0.1	0.234	262.205	0	PA_with_intermediate	test	ward_and_allport	82	34.0	0.234	to_hand	poldrack-single-stim	s641	False
262.207	0.1	0.283	262.49	0	PA_with_intermediate	test	ward_and_allport	89	34.0	0.283	to_board	poldrack-single-stim	s641	False
262.5	1.0	2.408	262.499	0	PA_with_intermediate	test	ward_and_allport	-1	34.0	n/a	feedback	poldrack-single-stim	s641	False
264.917	0.878	0.878	265.795	1	PA_without_intermediate	test	ward_and_allport	89	35.0	0.878	to_hand	poldrack-single-stim	s641	False
265.796	0.1	0.291	266.087	0	PA_without_intermediate	test	ward_and_allport	82	35.0	0.291	to_board	poldrack-single-stim	s641	False
266.092	0.1	0.323	266.415	0	PA_without_intermediate	test	ward_and_allport	89	35.0	0.323	to_hand	poldrack-single-stim	s641	False
266.417	0.1	0.252	266.669	0	PA_without_intermediate	test	ward_and_allport	82	35.0	0.252	to_board	poldrack-single-stim	s641	False
266.675	0.1	0.552	267.227	0	PA_without_intermediate	test	ward_and_allport	89	35.0	0.552	to_hand	poldrack-single-stim	s641	False
267.228	0.1	0.189	267.417	0	PA_without_intermediate	test	ward_and_allport	71	35.0	0.189	to_board	poldrack-single-stim	s641	False
267.426	1.0	2.816	267.425	0	PA_without_intermediate	test	ward_and_allport	-1	35.0	n/a	feedback	poldrack-single-stim	s641	False
270.25	1.107	1.107	271.357	1	PA_with_intermediate	test	ward_and_allport	71	36.0	1.107	to_hand	poldrack-single-stim	s641	False
271.358	0.1	0.522	271.88	0	PA_with_intermediate	test	ward_and_allport	82	36.0	0.522	to_board	poldrack-single-stim	s641	False
271.888	0.1	0.294	272.182	0	PA_with_intermediate	test	ward_and_allport	71	36.0	0.294	to_hand	poldrack-single-stim	s641	False
272.183	0.1	0.225	272.408	0	PA_with_intermediate	test	ward_and_allport	89	36.0	0.225	to_board	poldrack-single-stim	s641	False
272.415	0.1	0.252	272.667	0	PA_with_intermediate	test	ward_and_allport	82	36.0	0.252	to_hand	poldrack-single-stim	s641	False
272.668	0.1	0.239	272.907	0	PA_with_intermediate	test	ward_and_allport	89	36.0	0.239	to_board	poldrack-single-stim	s641	False
272.919	1.0	4.176	272.918	0	PA_with_intermediate	test	ward_and_allport	-1	36.0	n/a	feedback	poldrack-single-stim	s641	False
277.102	1.264	1.264	278.366	1	PA_with_intermediate	test	ward_and_allport	89	37.0	1.264	to_hand	poldrack-single-stim	s641	False
278.367	0.1	0.24	278.607	0	PA_with_intermediate	test	ward_and_allport	82	37.0	0.24	to_board	poldrack-single-stim	s641	False
278.614	0.1	0.333	278.947	0	PA_with_intermediate	test	ward_and_allport	89	37.0	0.333	to_hand	poldrack-single-stim	s641	False
278.949	0.1	0.407	279.356	0	PA_with_intermediate	test	ward_and_allport	71	37.0	0.407	to_board	poldrack-single-stim	s641	False
279.363	0.1	0.437	279.8	0	PA_with_intermediate	test	ward_and_allport	82	37.0	0.437	to_hand	poldrack-single-stim	s641	False
279.802	0.1	0.287	280.089	0	PA_with_intermediate	test	ward_and_allport	89	37.0	0.287	to_board	poldrack-single-stim	s641	False
280.096	0.1	0.193	280.289	0	PA_with_intermediate	test	ward_and_allport	89	37.0	0.193	to_hand	poldrack-single-stim	s641	False
280.291	0.1	0.635	280.926	0	PA_with_intermediate	test	ward_and_allport	71	37.0	0.635	to_board	poldrack-single-stim	s641	False
280.937	1.0	3.36	280.936	0	PA_with_intermediate	test	ward_and_allport	-1	37.0	n/a	feedback	poldrack-single-stim	s641	False
284.305	0.711	0.711	285.016	1	PA_with_intermediate	test	ward_and_allport	89	38.0	0.711	to_hand	poldrack-single-stim	s641	False
285.018	0.1	0.678	285.696	0	PA_with_intermediate	test	ward_and_allport	82	38.0	0.678	to_board	poldrack-single-stim	s641	False
285.703	0.1	0.673	286.376	0	PA_with_intermediate	test	ward_and_allport	82	38.0	0.673	to_hand	poldrack-single-stim	s641	False
286.377	0.1	0.135	286.512	0	PA_with_intermediate	test	ward_and_allport	71	38.0	0.135	to_board	poldrack-single-stim	s641	False
286.52	0.1	0.677	287.197	0	PA_with_intermediate	test	ward_and_allport	89	38.0	0.677	to_hand	poldrack-single-stim	s641	False
287.198	0.1	0.308	287.506	0	PA_with_intermediate	test	ward_and_allport	82	38.0	0.308	to_board	poldrack-single-stim	s641	False
287.514	0.1	0.635	288.149	0	PA_with_intermediate	test	ward_and_allport	71	38.0	0.635	to_hand	poldrack-single-stim	s641	False
288.15	0.1	0.2	288.35	0	PA_with_intermediate	test	ward_and_allport	89	38.0	0.2	to_board	poldrack-single-stim	s641	False
288.359	1.0	2.0	288.358	0	PA_with_intermediate	test	ward_and_allport	-1	38.0	n/a	feedback	poldrack-single-stim	s641	False
290.365	0.96	0.96	291.325	1	PA_without_intermediate	test	ward_and_allport	82	39.0	0.96	to_hand	poldrack-single-stim	s641	False
291.327	0.1	0.31	291.637	0	PA_without_intermediate	test	ward_and_allport	71	39.0	0.31	to_board	poldrack-single-stim	s641	False
291.644	0.1	0.317	291.961	0	PA_without_intermediate	test	ward_and_allport	82	39.0	0.317	to_hand	poldrack-single-stim	s641	False
291.961	0.1	0.254	292.215	0	PA_without_intermediate	test	ward_and_allport	71	39.0	0.254	to_board	poldrack-single-stim	s641	False
292.222	0.1	0.585	292.807	0	PA_without_intermediate	test	ward_and_allport	82	39.0	0.585	to_hand	poldrack-single-stim	s641	False
292.809	0.1	0.272	293.081	0	PA_without_intermediate	test	ward_and_allport	89	39.0	0.272	to_board	poldrack-single-stim	s641	False
293.093	1.0	2.408	293.092	0	PA_without_intermediate	test	ward_and_allport	-1	39.0	n/a	feedback	poldrack-single-stim	s641	False
295.509	1.2	1.2	296.709	1	PA_with_intermediate	test	ward_and_allport	82	40.0	1.2	to_hand	poldrack-single-stim	s641	False
296.71	0.1	0.292	297.002	0	PA_with_intermediate	test	ward_and_allport	71	40.0	0.292	to_board	poldrack-single-stim	s641	False
297.009	0.1	0.486	297.495	0	PA_with_intermediate	test	ward_and_allport	82	40.0	0.486	to_hand	poldrack-single-stim	s641	False
297.495	0.1	0.288	297.783	0	PA_with_intermediate	test	ward_and_allport	71	40.0	0.288	to_board	poldrack-single-stim	s641	False
297.791	0.1	0.695	298.486	0	PA_with_intermediate	test	ward_and_allport	71	40.0	0.695	to_hand	poldrack-single-stim	s641	False
298.487	0.1	0.145	298.632	0	PA_with_intermediate	test	ward_and_allport	89	40.0	0.145	to_board	poldrack-single-stim	s641	False
298.639	0.1	0.722	299.361	0	PA_with_intermediate	test	ward_and_allport	71	40.0	0.722	to_hand	poldrack-single-stim	s641	False
299.362	0.1	0.127	299.489	0	PA_with_intermediate	test	ward_and_allport	89	40.0	0.127	to_board	poldrack-single-stim	s641	False
299.5	1.0	2.816	299.499	0	PA_with_intermediate	test	ward_and_allport	-1	40.0	n/a	feedback	poldrack-single-stim	s641	False
302.323	0.925	0.925	303.248	1	PA_without_intermediate	test	ward_and_allport	89	41.0	0.925	to_hand	poldrack-single-stim	s641	False
303.249	0.1	0.269	303.518	0	PA_without_intermediate	test	ward_and_allport	82	41.0	0.269	to_board	poldrack-single-stim	s641	False
303.525	0.1	0.705	304.23	0	PA_without_intermediate	test	ward_and_allport	89	41.0	0.705	to_hand	poldrack-single-stim	s641	False
304.231	0.1	0.276	304.507	0	PA_without_intermediate	test	ward_and_allport	71	41.0	0.276	to_board	poldrack-single-stim	s641	False
304.514	0.1	0.268	304.782	0	PA_without_intermediate	test	ward_and_allport	89	41.0	0.268	to_hand	poldrack-single-stim	s641	False
304.784	0.1	0.318	305.102	0	PA_without_intermediate	test	ward_and_allport	82	41.0	0.318	to_board	poldrack-single-stim	s641	False
305.114	1.0	3.088	305.113	0	PA_without_intermediate	test	ward_and_allport	-1	41.0	n/a	feedback	poldrack-single-stim	s641	False
308.211	1.299	1.299	309.51	1	PA_without_intermediate	test	ward_and_allport	71	42.0	1.299	to_hand	poldrack-single-stim	s641	False
309.512	0.1	0.246	309.758	0	PA_without_intermediate	test	ward_and_allport	82	42.0	0.246	to_board	poldrack-single-stim	s641	False
309.767	0.1	0.788	310.555	0	PA_without_intermediate	test	ward_and_allport	71	42.0	0.788	to_hand	poldrack-single-stim	s641	False
310.556	0.1	0.125	310.681	0	PA_without_intermediate	test	ward_and_allport	89	42.0	0.125	to_board	poldrack-single-stim	s641	False
310.689	0.1	0.549	311.238	0	PA_without_intermediate	test	ward_and_allport	71	42.0	0.549	to_hand	poldrack-single-stim	s641	False
311.239	0.1	0.163	311.402	0	PA_without_intermediate	test	ward_and_allport	82	42.0	0.163	to_board	poldrack-single-stim	s641	False
311.416	1.0	2.136	311.415	0	PA_without_intermediate	test	ward_and_allport	-1	42.0	n/a	feedback	poldrack-single-stim	s641	False
313.56	1.07	1.07	314.63	1	PA_without_intermediate	test	ward_and_allport	89	43.0	1.07	to_hand	poldrack-single-stim	s641	False
314.632	0.1	0.234	314.866	0	PA_without_intermediate	test	ward_and_allport	71	43.0	0.234	to_board	poldrack-single-stim	s641	False
314.874	0.1	0.267	315.141	0	PA_without_intermediate	test	ward_and_allport	89	43.0	0.267	to_hand	poldrack-single-stim	s641	False
315.143	0.1	0.182	315.325	0	PA_without_intermediate	test	ward_and_allport	71	43.0	0.182	to_board	poldrack-single-stim	s641	False
315.333	0.1	0.504	315.837	0	PA_without_intermediate	test	ward_and_allport	89	43.0	0.504	to_hand	poldrack-single-stim	s641	False
315.839	0.1	0.216	316.055	0	PA_without_intermediate	test	ward_and_allport	82	43.0	0.216	to_board	poldrack-single-stim	s641	False
316.067	1.0	7.168	316.066	0	PA_without_intermediate	test	ward_and_allport	-1	43.0	n/a	feedback	poldrack-single-stim	s641	False
323.242	0.787	0.787	324.029	1	PA_without_intermediate	test	ward_and_allport	89	44.0	0.787	to_hand	poldrack-single-stim	s641	False
324.031	0.1	0.277	324.308	0	PA_without_intermediate	test	ward_and_allport	82	44.0	0.277	to_board	poldrack-single-stim	s641	False
324.317	0.1	0.367	324.684	0	PA_without_intermediate	test	ward_and_allport	89	44.0	0.367	to_hand	poldrack-single-stim	s641	False
324.685	0.1	0.319	325.004	0	PA_without_intermediate	test	ward_and_allport	71	44.0	0.319	to_board	poldrack-single-stim	s641	False
325.014	0.1	0.192	325.206	0	PA_without_intermediate	test	ward_and_allport	89	44.0	0.192	to_hand	poldrack-single-stim	s641	False
325.207	0.1	0.193	325.4	0	PA_without_intermediate	test	ward_and_allport	82	44.0	0.193	to_board	poldrack-single-stim	s641	False
325.416	1.0	2.816	325.415	0	PA_without_intermediate	test	ward_and_allport	-1	44.0	n/a	feedback	poldrack-single-stim	s641	False
333.251	0.68	0.68	333.931	1	PA_with_intermediate	test	ward_and_allport	82	45.0	0.68	to_hand	poldrack-single-stim	s641	False
333.933	0.1	1.34	335.273	0	PA_with_intermediate	test	ward_and_allport	89	45.0	1.34	to_board	poldrack-single-stim	s641	False
335.285	0.1	0.391	335.676	0	PA_with_intermediate	test	ward_and_allport	82	45.0	0.391	to_hand	poldrack-single-stim	s641	False
335.677	0.1	0.307	335.984	0	PA_with_intermediate	test	ward_and_allport	71	45.0	0.307	to_board	poldrack-single-stim	s641	False
335.995	0.1	0.282	336.277	0	PA_with_intermediate	test	ward_and_allport	89	45.0	0.282	to_hand	poldrack-single-stim	s641	False
336.278	0.1	0.179	336.457	0	PA_with_intermediate	test	ward_and_allport	82	45.0	0.179	to_board	poldrack-single-stim	s641	False
336.473	1.0	2.952	336.472	0	PA_with_intermediate	test	ward_and_allport	-1	45.0	n/a	feedback	poldrack-single-stim	s641	False
339.436	2.027	2.027	341.463	1	PA_with_intermediate	test	ward_and_allport	71	46.0	2.027	to_hand	poldrack-single-stim	s641	False
341.465	0.1	0.292	341.757	0	PA_with_intermediate	test	ward_and_allport	89	46.0	0.292	to_board	poldrack-single-stim	s641	False
341.767	0.1	0.267	342.034	0	PA_with_intermediate	test	ward_and_allport	71	46.0	0.267	to_hand	poldrack-single-stim	s641	False
342.036	0.1	0.221	342.257	0	PA_with_intermediate	test	ward_and_allport	82	46.0	0.221	to_board	poldrack-single-stim	s641	False
342.268	0.1	0.238	342.506	0	PA_with_intermediate	test	ward_and_allport	89	46.0	0.238	to_hand	poldrack-single-stim	s641	False
342.507	0.1	0.214	342.721	0	PA_with_intermediate	test	ward_and_allport	71	46.0	0.214	to_board	poldrack-single-stim	s641	False
342.737	1.0	2.136	342.736	0	PA_with_intermediate	test	ward_and_allport	-1	46.0	n/a	feedback	poldrack-single-stim	s641	False
344.882	1.099	1.099	345.981	1	PA_without_intermediate	test	ward_and_allport	82	47.0	1.099	to_hand	poldrack-single-stim	s641	False
345.983	0.1	0.292	346.275	0	PA_without_intermediate	test	ward_and_allport	89	47.0	0.292	to_board	poldrack-single-stim	s641	False
346.283	0.1	0.337	346.62	0	PA_without_intermediate	test	ward_and_allport	82	47.0	0.337	to_hand	poldrack-single-stim	s641	False
346.622	0.1	0.274	346.896	0	PA_without_intermediate	test	ward_and_allport	89	47.0	0.274	to_board	poldrack-single-stim	s641	False
346.906	0.1	0.441	347.347	0	PA_without_intermediate	test	ward_and_allport	82	47.0	0.441	to_hand	poldrack-single-stim	s641	False
347.349	0.1	0.255	347.604	0	PA_without_intermediate	test	ward_and_allport	71	47.0	0.255	to_board	poldrack-single-stim	s641	False
347.618	1.0	2.68	347.617	0	PA_without_intermediate	test	ward_and_allport	-1	47.0	n/a	feedback	poldrack-single-stim	s641	False
