onset	duration	block_duration	movement_onset	planning	condition	exp_stage	experiment_exp_id	key_press	problem_id	response_time	trial_id	trial_type	worker_id	junk
3.009	4.285	4.285	7.294	1	UA_with_intermediate	practice	ward_and_allport	71	0.0	4.285	to_hand	poldrack-single-stim	s541	False
7.295	0.1	0.731	8.026	0	UA_with_intermediate	practice	ward_and_allport	82	0.0	0.731	to_board	poldrack-single-stim	s541	False
8.028	0.1	1.493	9.521	0	UA_with_intermediate	practice	ward_and_allport	71	0.0	1.493	to_hand	poldrack-single-stim	s541	False
9.522	0.1	0.439	9.961	0	UA_with_intermediate	practice	ward_and_allport	89	0.0	0.439	to_board	poldrack-single-stim	s541	False
9.962	0.1	1.188	11.15	0	UA_with_intermediate	practice	ward_and_allport	82	0.0	1.188	to_hand	poldrack-single-stim	s541	False
11.152	0.1	0.528	11.68	0	UA_with_intermediate	practice	ward_and_allport	89	0.0	0.528	to_board	poldrack-single-stim	s541	False
11.684	1.0	2.5	11.683	0	UA_with_intermediate	practice	ward_and_allport	-1	0.0	n/a	feedback	poldrack-single-stim	s541	False
14.187	3.989	3.989	18.176	1	UA_with_intermediate	practice	ward_and_allport	89	1.0	3.989	to_hand	poldrack-single-stim	s541	False
18.177	0.1	1.505	19.682	0	UA_with_intermediate	practice	ward_and_allport	82	1.0	1.505	to_board	poldrack-single-stim	s541	False
19.685	0.1	0.542	20.227	0	UA_with_intermediate	practice	ward_and_allport	71	1.0	0.542	to_hand	poldrack-single-stim	s541	False
20.227	0.1	0.495	20.722	0	UA_with_intermediate	practice	ward_and_allport	89	1.0	0.495	to_board	poldrack-single-stim	s541	False
20.723	0.1	1.016	21.739	0	UA_with_intermediate	practice	ward_and_allport	82	1.0	1.016	to_hand	poldrack-single-stim	s541	False
21.741	0.1	0.39	22.131	0	UA_with_intermediate	practice	ward_and_allport	89	1.0	0.39	to_board	poldrack-single-stim	s541	False
22.136	1.0	2.1	22.135	0	UA_with_intermediate	practice	ward_and_allport	-1	1.0	n/a	feedback	poldrack-single-stim	s541	False
24.238	2.869	2.869	27.107	1	UA_without_intermediate	practice	ward_and_allport	82	2.0	2.869	to_hand	poldrack-single-stim	s541	False
27.108	0.1	1.152	28.26	0	UA_without_intermediate	practice	ward_and_allport	89	2.0	1.152	to_board	poldrack-single-stim	s541	False
28.262	0.1	2.684	30.946	0	UA_without_intermediate	practice	ward_and_allport	71	2.0	2.684	to_hand	poldrack-single-stim	s541	False
30.948	0.1	0.352	31.3	0	UA_without_intermediate	practice	ward_and_allport	89	2.0	0.352	to_board	poldrack-single-stim	s541	False
31.302	0.1	1.711	33.013	0	UA_without_intermediate	practice	ward_and_allport	71	2.0	1.711	to_hand	poldrack-single-stim	s541	False
33.014	0.1	0.472	33.486	0	UA_without_intermediate	practice	ward_and_allport	89	2.0	0.472	to_board	poldrack-single-stim	s541	False
33.493	1.0	2.2	33.492	0	UA_without_intermediate	practice	ward_and_allport	-1	2.0	n/a	feedback	poldrack-single-stim	s541	False
35.695	3.658	3.658	39.353	1	UA_without_intermediate	practice	ward_and_allport	71	3.0	3.658	to_hand	poldrack-single-stim	s541	False
39.354	0.1	0.313	39.667	0	UA_without_intermediate	practice	ward_and_allport	89	3.0	0.313	to_board	poldrack-single-stim	s541	False
39.669	0.1	2.39	42.059	0	UA_without_intermediate	practice	ward_and_allport	82	3.0	2.39	to_hand	poldrack-single-stim	s541	False
42.059	0.1	0.329	42.388	0	UA_without_intermediate	practice	ward_and_allport	89	3.0	0.329	to_board	poldrack-single-stim	s541	False
42.389	0.1	1.133	43.522	0	UA_without_intermediate	practice	ward_and_allport	71	3.0	1.133	to_hand	poldrack-single-stim	s541	False
43.524	0.1	2.791	46.315	0	UA_without_intermediate	practice	ward_and_allport	89	3.0	2.791	to_board	poldrack-single-stim	s541	False
46.317	1.0	2.0	46.316	0	UA_without_intermediate	practice	ward_and_allport	-1	3.0	n/a	feedback	poldrack-single-stim	s541	False
50.323	4.997	4.997	55.32	1	PA_with_intermediate	test	ward_and_allport	89	0.0	4.997	to_hand	poldrack-single-stim	s541	False
55.321	0.1	0.688	56.009	0	PA_with_intermediate	test	ward_and_allport	82	0.0	0.688	to_board	poldrack-single-stim	s541	False
56.011	0.1	1.862	57.873	0	PA_with_intermediate	test	ward_and_allport	89	0.0	1.862	to_hand	poldrack-single-stim	s541	False
57.874	0.1	0.949	58.823	0	PA_with_intermediate	test	ward_and_allport	71	0.0	0.949	to_board	poldrack-single-stim	s541	False
58.824	0.1	6.853	65.677	0	PA_with_intermediate	test	ward_and_allport	82	0.0	6.853	to_hand	poldrack-single-stim	s541	False
65.678	0.1	0.353	66.031	0	PA_with_intermediate	test	ward_and_allport	89	0.0	0.353	to_board	poldrack-single-stim	s541	False
66.035	1.0	4.176	66.034	0	PA_with_intermediate	test	ward_and_allport	-1	0.0	n/a	feedback	poldrack-single-stim	s541	False
70.214	5.565	5.565	75.779	1	PA_with_intermediate	test	ward_and_allport	71	1.0	5.565	to_hand	poldrack-single-stim	s541	False
75.779	0.1	0.391	76.17	0	PA_with_intermediate	test	ward_and_allport	89	1.0	0.391	to_board	poldrack-single-stim	s541	False
76.172	0.1	0.823	76.995	0	PA_with_intermediate	test	ward_and_allport	71	1.0	0.823	to_hand	poldrack-single-stim	s541	False
76.996	0.1	0.396	77.392	0	PA_with_intermediate	test	ward_and_allport	82	1.0	0.396	to_board	poldrack-single-stim	s541	False
77.393	0.1	0.776	78.169	0	PA_with_intermediate	test	ward_and_allport	89	1.0	0.776	to_hand	poldrack-single-stim	s541	False
78.171	0.1	0.348	78.519	0	PA_with_intermediate	test	ward_and_allport	82	1.0	0.348	to_board	poldrack-single-stim	s541	False
78.526	1.0	3.36	78.525	0	PA_with_intermediate	test	ward_and_allport	-1	1.0	n/a	feedback	poldrack-single-stim	s541	False
81.889	4.327	4.327	86.216	1	PA_with_intermediate	test	ward_and_allport	89	2.0	4.327	to_hand	poldrack-single-stim	s541	False
86.216	0.1	0.453	86.669	0	PA_with_intermediate	test	ward_and_allport	82	2.0	0.453	to_board	poldrack-single-stim	s541	False
86.672	0.1	1.227	87.899	0	PA_with_intermediate	test	ward_and_allport	89	2.0	1.227	to_hand	poldrack-single-stim	s541	False
87.899	0.1	0.388	88.287	0	PA_with_intermediate	test	ward_and_allport	71	2.0	0.388	to_board	poldrack-single-stim	s541	False
88.29	0.1	1.016	89.306	0	PA_with_intermediate	test	ward_and_allport	82	2.0	1.016	to_hand	poldrack-single-stim	s541	False
89.307	0.1	0.293	89.6	0	PA_with_intermediate	test	ward_and_allport	89	2.0	0.293	to_board	poldrack-single-stim	s541	False
89.603	1.0	2.0	89.602	0	PA_with_intermediate	test	ward_and_allport	-1	2.0	n/a	feedback	poldrack-single-stim	s541	False
91.606	4.935	4.935	96.541	1	PA_without_intermediate	test	ward_and_allport	71	3.0	4.935	to_hand	poldrack-single-stim	s541	False
96.542	0.1	0.337	96.879	0	PA_without_intermediate	test	ward_and_allport	89	3.0	0.337	to_board	poldrack-single-stim	s541	False
96.88	0.1	0.522	97.402	0	PA_without_intermediate	test	ward_and_allport	71	3.0	0.522	to_hand	poldrack-single-stim	s541	False
97.404	0.1	0.416	97.82	0	PA_without_intermediate	test	ward_and_allport	89	3.0	0.416	to_board	poldrack-single-stim	s541	False
97.823	0.1	1.11	98.933	0	PA_without_intermediate	test	ward_and_allport	71	3.0	1.11	to_hand	poldrack-single-stim	s541	False
98.934	0.1	0.318	99.252	0	PA_without_intermediate	test	ward_and_allport	82	3.0	0.318	to_board	poldrack-single-stim	s541	False
99.255	1.0	2.408	99.254	0	PA_without_intermediate	test	ward_and_allport	-1	3.0	n/a	feedback	poldrack-single-stim	s541	False
101.666	5.213	5.213	106.879	1	PA_with_intermediate	test	ward_and_allport	89	4.0	5.213	to_hand	poldrack-single-stim	s541	False
106.881	0.1	0.31	107.191	0	PA_with_intermediate	test	ward_and_allport	71	4.0	0.31	to_board	poldrack-single-stim	s541	False
107.194	0.1	0.961	108.155	0	PA_with_intermediate	test	ward_and_allport	89	4.0	0.961	to_hand	poldrack-single-stim	s541	False
108.155	0.1	0.34	108.495	0	PA_with_intermediate	test	ward_and_allport	82	4.0	0.34	to_board	poldrack-single-stim	s541	False
108.497	0.1	0.959	109.456	0	PA_with_intermediate	test	ward_and_allport	71	4.0	0.959	to_hand	poldrack-single-stim	s541	False
109.456	0.1	0.292	109.748	0	PA_with_intermediate	test	ward_and_allport	82	4.0	0.292	to_board	poldrack-single-stim	s541	False
109.754	1.0	2.816	109.753	0	PA_with_intermediate	test	ward_and_allport	-1	4.0	n/a	feedback	poldrack-single-stim	s541	False
112.572	4.526	4.526	117.098	1	PA_without_intermediate	test	ward_and_allport	71	5.0	4.526	to_hand	poldrack-single-stim	s541	False
117.099	0.1	0.313	117.412	0	PA_without_intermediate	test	ward_and_allport	89	5.0	0.313	to_board	poldrack-single-stim	s541	False
117.415	0.1	0.506	117.921	0	PA_without_intermediate	test	ward_and_allport	71	5.0	0.506	to_hand	poldrack-single-stim	s541	False
117.921	0.1	0.316	118.237	0	PA_without_intermediate	test	ward_and_allport	89	5.0	0.316	to_board	poldrack-single-stim	s541	False
118.239	0.1	0.59	118.829	0	PA_without_intermediate	test	ward_and_allport	71	5.0	0.59	to_hand	poldrack-single-stim	s541	False
118.831	0.1	0.322	119.153	0	PA_without_intermediate	test	ward_and_allport	82	5.0	0.322	to_board	poldrack-single-stim	s541	False
119.157	1.0	3.088	119.156	0	PA_without_intermediate	test	ward_and_allport	-1	5.0	n/a	feedback	poldrack-single-stim	s541	False
122.248	3.64	3.64	125.888	1	PA_without_intermediate	test	ward_and_allport	71	6.0	3.64	to_hand	poldrack-single-stim	s541	False
125.889	0.1	0.372	126.261	0	PA_without_intermediate	test	ward_and_allport	82	6.0	0.372	to_board	poldrack-single-stim	s541	False
126.264	0.1	0.441	126.705	0	PA_without_intermediate	test	ward_and_allport	71	6.0	0.441	to_hand	poldrack-single-stim	s541	False
126.705	0.1	0.327	127.032	0	PA_without_intermediate	test	ward_and_allport	89	6.0	0.327	to_board	poldrack-single-stim	s541	False
127.036	0.1	0.615	127.651	0	PA_without_intermediate	test	ward_and_allport	71	6.0	0.615	to_hand	poldrack-single-stim	s541	False
127.651	0.1	0.298	127.949	0	PA_without_intermediate	test	ward_and_allport	82	6.0	0.298	to_board	poldrack-single-stim	s541	False
127.956	1.0	2.136	127.955	0	PA_without_intermediate	test	ward_and_allport	-1	6.0	n/a	feedback	poldrack-single-stim	s541	False
130.095	3.768	3.768	133.863	1	PA_without_intermediate	test	ward_and_allport	71	7.0	3.768	to_hand	poldrack-single-stim	s541	False
133.863	0.1	0.303	134.166	0	PA_without_intermediate	test	ward_and_allport	82	7.0	0.303	to_board	poldrack-single-stim	s541	False
134.17	0.1	0.354	134.524	0	PA_without_intermediate	test	ward_and_allport	71	7.0	0.354	to_hand	poldrack-single-stim	s541	False
134.525	0.1	0.314	134.839	0	PA_without_intermediate	test	ward_and_allport	82	7.0	0.314	to_board	poldrack-single-stim	s541	False
134.841	0.1	0.673	135.514	0	PA_without_intermediate	test	ward_and_allport	71	7.0	0.673	to_hand	poldrack-single-stim	s541	False
135.516	0.1	0.259	135.775	0	PA_without_intermediate	test	ward_and_allport	89	7.0	0.259	to_board	poldrack-single-stim	s541	False
135.784	1.0	7.168	135.783	0	PA_without_intermediate	test	ward_and_allport	-1	7.0	n/a	feedback	poldrack-single-stim	s541	False
142.956	3.688	3.688	146.644	1	PA_without_intermediate	test	ward_and_allport	71	8.0	3.688	to_hand	poldrack-single-stim	s541	False
146.645	0.1	0.306	146.951	0	PA_without_intermediate	test	ward_and_allport	89	8.0	0.306	to_board	poldrack-single-stim	s541	False
146.954	0.1	0.483	147.437	0	PA_without_intermediate	test	ward_and_allport	71	8.0	0.483	to_hand	poldrack-single-stim	s541	False
147.439	0.1	0.364	147.803	0	PA_without_intermediate	test	ward_and_allport	82	8.0	0.364	to_board	poldrack-single-stim	s541	False
147.805	0.1	0.429	148.234	0	PA_without_intermediate	test	ward_and_allport	71	8.0	0.429	to_hand	poldrack-single-stim	s541	False
148.235	0.1	0.308	148.543	0	PA_without_intermediate	test	ward_and_allport	89	8.0	0.308	to_board	poldrack-single-stim	s541	False
148.552	1.0	2.816	148.551	0	PA_without_intermediate	test	ward_and_allport	-1	8.0	n/a	feedback	poldrack-single-stim	s541	False
151.372	5.372	5.372	156.744	1	PA_with_intermediate	test	ward_and_allport	82	9.0	5.372	to_hand	poldrack-single-stim	s541	False
156.745	0.1	0.46	157.205	0	PA_with_intermediate	test	ward_and_allport	89	9.0	0.46	to_board	poldrack-single-stim	s541	False
157.208	0.1	2.175	159.383	0	PA_with_intermediate	test	ward_and_allport	82	9.0	2.175	to_hand	poldrack-single-stim	s541	False
159.384	0.1	0.723	160.107	0	PA_with_intermediate	test	ward_and_allport	71	9.0	0.723	to_board	poldrack-single-stim	s541	False
160.111	0.1	1.128	161.239	0	PA_with_intermediate	test	ward_and_allport	89	9.0	1.128	to_hand	poldrack-single-stim	s541	False
161.24	0.1	0.363	161.603	0	PA_with_intermediate	test	ward_and_allport	82	9.0	0.363	to_board	poldrack-single-stim	s541	False
161.608	1.0	2.952	161.607	0	PA_with_intermediate	test	ward_and_allport	-1	9.0	n/a	feedback	poldrack-single-stim	s541	False
164.564	4.421	4.421	168.985	1	PA_with_intermediate	test	ward_and_allport	89	10.0	4.421	to_hand	poldrack-single-stim	s541	False
168.986	0.1	0.339	169.325	0	PA_with_intermediate	test	ward_and_allport	71	10.0	0.339	to_board	poldrack-single-stim	s541	False
169.328	0.1	1.004	170.332	0	PA_with_intermediate	test	ward_and_allport	89	10.0	1.004	to_hand	poldrack-single-stim	s541	False
170.333	0.1	0.397	170.73	0	PA_with_intermediate	test	ward_and_allport	82	10.0	0.397	to_board	poldrack-single-stim	s541	False
170.733	0.1	0.891	171.624	0	PA_with_intermediate	test	ward_and_allport	71	10.0	0.891	to_hand	poldrack-single-stim	s541	False
171.626	0.1	0.251	171.877	0	PA_with_intermediate	test	ward_and_allport	89	10.0	0.251	to_board	poldrack-single-stim	s541	False
171.881	1.0	2.136	171.88	0	PA_with_intermediate	test	ward_and_allport	-1	10.0	n/a	feedback	poldrack-single-stim	s541	False
174.021	3.712	3.712	177.733	1	PA_without_intermediate	test	ward_and_allport	71	11.0	3.712	to_hand	poldrack-single-stim	s541	False
177.733	0.1	0.351	178.084	0	PA_without_intermediate	test	ward_and_allport	89	11.0	0.351	to_board	poldrack-single-stim	s541	False
178.088	0.1	0.487	178.575	0	PA_without_intermediate	test	ward_and_allport	71	11.0	0.487	to_hand	poldrack-single-stim	s541	False
178.577	0.1	0.386	178.963	0	PA_without_intermediate	test	ward_and_allport	82	11.0	0.386	to_board	poldrack-single-stim	s541	False
178.966	0.1	0.485	179.451	0	PA_without_intermediate	test	ward_and_allport	71	11.0	0.485	to_hand	poldrack-single-stim	s541	False
179.453	0.1	0.281	179.734	0	PA_without_intermediate	test	ward_and_allport	89	11.0	0.281	to_board	poldrack-single-stim	s541	False
179.743	1.0	2.68	179.742	0	PA_without_intermediate	test	ward_and_allport	-1	11.0	n/a	feedback	poldrack-single-stim	s541	False
182.427	2.634	2.634	185.061	1	PA_without_intermediate	test	ward_and_allport	89	12.0	2.634	to_hand	poldrack-single-stim	s541	False
185.062	0.1	0.375	185.437	0	PA_without_intermediate	test	ward_and_allport	82	12.0	0.375	to_board	poldrack-single-stim	s541	False
185.442	0.1	1.735	187.177	0	PA_without_intermediate	test	ward_and_allport	89	12.0	1.735	to_hand	poldrack-single-stim	s541	False
187.177	0.1	0.372	187.549	0	PA_without_intermediate	test	ward_and_allport	82	12.0	0.372	to_board	poldrack-single-stim	s541	False
187.554	0.1	1.488	189.042	0	PA_without_intermediate	test	ward_and_allport	89	12.0	1.488	to_hand	poldrack-single-stim	s541	False
189.042	0.1	0.261	189.303	0	PA_without_intermediate	test	ward_and_allport	71	12.0	0.261	to_board	poldrack-single-stim	s541	False
189.312	1.0	3.088	189.311	0	PA_without_intermediate	test	ward_and_allport	-1	12.0	n/a	feedback	poldrack-single-stim	s541	False
192.404	3.247	3.247	195.651	1	PA_with_intermediate	test	ward_and_allport	89	13.0	3.247	to_hand	poldrack-single-stim	s541	False
195.653	0.1	0.336	195.989	0	PA_with_intermediate	test	ward_and_allport	71	13.0	0.336	to_board	poldrack-single-stim	s541	False
195.994	0.1	0.799	196.793	0	PA_with_intermediate	test	ward_and_allport	89	13.0	0.799	to_hand	poldrack-single-stim	s541	False
196.794	0.1	0.313	197.107	0	PA_with_intermediate	test	ward_and_allport	82	13.0	0.313	to_board	poldrack-single-stim	s541	False
197.112	0.1	0.892	198.004	0	PA_with_intermediate	test	ward_and_allport	71	13.0	0.892	to_hand	poldrack-single-stim	s541	False
198.004	0.1	0.247	198.251	0	PA_with_intermediate	test	ward_and_allport	89	13.0	0.247	to_board	poldrack-single-stim	s541	False
198.258	1.0	2.0	198.257	0	PA_with_intermediate	test	ward_and_allport	-1	13.0	n/a	feedback	poldrack-single-stim	s541	False
200.262	4.746	4.746	205.008	1	PA_without_intermediate	test	ward_and_allport	71	14.0	4.746	to_hand	poldrack-single-stim	s541	False
205.01	0.1	0.368	205.378	0	PA_without_intermediate	test	ward_and_allport	82	14.0	0.368	to_board	poldrack-single-stim	s541	False
205.381	0.1	0.634	206.015	0	PA_without_intermediate	test	ward_and_allport	71	14.0	0.634	to_hand	poldrack-single-stim	s541	False
206.016	0.1	0.289	206.305	0	PA_without_intermediate	test	ward_and_allport	89	14.0	0.289	to_board	poldrack-single-stim	s541	False
206.309	0.1	0.804	207.113	0	PA_without_intermediate	test	ward_and_allport	71	14.0	0.804	to_hand	poldrack-single-stim	s541	False
207.114	0.1	0.441	207.555	0	PA_without_intermediate	test	ward_and_allport	82	14.0	0.441	to_board	poldrack-single-stim	s541	False
207.563	1.0	2.0	207.562	0	PA_without_intermediate	test	ward_and_allport	-1	14.0	n/a	feedback	poldrack-single-stim	s541	False
214.57	4.583	4.583	219.153	1	PA_without_intermediate	test	ward_and_allport	89	15.0	4.583	to_hand	poldrack-single-stim	s541	False
219.154	0.1	0.532	219.686	0	PA_without_intermediate	test	ward_and_allport	82	15.0	0.532	to_board	poldrack-single-stim	s541	False
219.69	0.1	0.771	220.461	0	PA_without_intermediate	test	ward_and_allport	89	15.0	0.771	to_hand	poldrack-single-stim	s541	False
220.463	0.1	0.369	220.832	0	PA_without_intermediate	test	ward_and_allport	82	15.0	0.369	to_board	poldrack-single-stim	s541	False
220.835	0.1	0.795	221.63	0	PA_without_intermediate	test	ward_and_allport	89	15.0	0.795	to_hand	poldrack-single-stim	s541	False
221.632	0.1	0.231	221.863	0	PA_without_intermediate	test	ward_and_allport	71	15.0	0.231	to_board	poldrack-single-stim	s541	False
221.87	1.0	2.0	221.869	0	PA_without_intermediate	test	ward_and_allport	-1	15.0	n/a	feedback	poldrack-single-stim	s541	False
223.873	5.364	5.364	229.237	1	PA_with_intermediate	test	ward_and_allport	89	16.0	5.364	to_hand	poldrack-single-stim	s541	False
229.239	0.1	0.28	229.519	0	PA_with_intermediate	test	ward_and_allport	71	16.0	0.28	to_board	poldrack-single-stim	s541	False
229.523	0.1	0.564	230.087	0	PA_with_intermediate	test	ward_and_allport	89	16.0	0.564	to_hand	poldrack-single-stim	s541	False
230.089	0.1	0.639	230.728	0	PA_with_intermediate	test	ward_and_allport	82	16.0	0.639	to_board	poldrack-single-stim	s541	False
230.731	0.1	0.433	231.164	0	PA_with_intermediate	test	ward_and_allport	71	16.0	0.433	to_hand	poldrack-single-stim	s541	False
231.165	0.1	0.326	231.491	0	PA_with_intermediate	test	ward_and_allport	82	16.0	0.326	to_board	poldrack-single-stim	s541	False
231.497	1.0	2.544	231.496	0	PA_with_intermediate	test	ward_and_allport	-1	16.0	n/a	feedback	poldrack-single-stim	s541	False
234.044	3.957	3.957	238.001	1	PA_without_intermediate	test	ward_and_allport	89	17.0	3.957	to_hand	poldrack-single-stim	s541	False
238.003	0.1	0.35	238.353	0	PA_without_intermediate	test	ward_and_allport	82	17.0	0.35	to_board	poldrack-single-stim	s541	False
238.358	0.1	0.578	238.936	0	PA_without_intermediate	test	ward_and_allport	89	17.0	0.578	to_hand	poldrack-single-stim	s541	False
238.937	0.1	0.243	239.18	0	PA_without_intermediate	test	ward_and_allport	71	17.0	0.243	to_board	poldrack-single-stim	s541	False
239.186	0.1	0.51	239.696	0	PA_without_intermediate	test	ward_and_allport	89	17.0	0.51	to_hand	poldrack-single-stim	s541	False
239.696	0.1	0.277	239.973	0	PA_without_intermediate	test	ward_and_allport	82	17.0	0.277	to_board	poldrack-single-stim	s541	False
239.982	1.0	2.272	239.981	0	PA_without_intermediate	test	ward_and_allport	-1	17.0	n/a	feedback	poldrack-single-stim	s541	False
242.259	7.342	7.342	249.601	1	PA_with_intermediate	test	ward_and_allport	71	18.0	7.342	to_hand	poldrack-single-stim	s541	False
249.602	0.1	0.327	249.929	0	PA_with_intermediate	test	ward_and_allport	82	18.0	0.327	to_board	poldrack-single-stim	s541	False
249.935	0.1	0.582	250.517	0	PA_with_intermediate	test	ward_and_allport	71	18.0	0.582	to_hand	poldrack-single-stim	s541	False
250.518	0.1	0.23	250.748	0	PA_with_intermediate	test	ward_and_allport	89	18.0	0.23	to_board	poldrack-single-stim	s541	False
250.752	0.1	0.746	251.498	0	PA_with_intermediate	test	ward_and_allport	82	18.0	0.746	to_hand	poldrack-single-stim	s541	False
251.5	0.1	0.338	251.838	0	PA_with_intermediate	test	ward_and_allport	71	18.0	0.338	to_board	poldrack-single-stim	s541	False
251.847	1.0	4.04	251.846	0	PA_with_intermediate	test	ward_and_allport	-1	18.0	n/a	feedback	poldrack-single-stim	s541	False
255.891	4.954	4.954	260.845	1	PA_with_intermediate	test	ward_and_allport	82	19.0	4.954	to_hand	poldrack-single-stim	s541	False
260.846	0.1	0.275	261.121	0	PA_with_intermediate	test	ward_and_allport	71	19.0	0.275	to_board	poldrack-single-stim	s541	False
261.126	0.1	1.168	262.294	0	PA_with_intermediate	test	ward_and_allport	82	19.0	1.168	to_hand	poldrack-single-stim	s541	False
262.295	0.1	0.261	262.556	0	PA_with_intermediate	test	ward_and_allport	89	19.0	0.261	to_board	poldrack-single-stim	s541	False
262.561	0.1	0.697	263.258	0	PA_with_intermediate	test	ward_and_allport	71	19.0	0.697	to_hand	poldrack-single-stim	s541	False
263.258	0.1	0.236	263.494	0	PA_with_intermediate	test	ward_and_allport	82	19.0	0.236	to_board	poldrack-single-stim	s541	False
263.503	1.0	2.272	263.502	0	PA_with_intermediate	test	ward_and_allport	-1	19.0	n/a	feedback	poldrack-single-stim	s541	False
265.78	4.526	4.526	270.306	1	PA_with_intermediate	test	ward_and_allport	71	20.0	4.526	to_hand	poldrack-single-stim	s541	False
270.306	0.1	0.238	270.544	0	PA_with_intermediate	test	ward_and_allport	89	20.0	0.238	to_board	poldrack-single-stim	s541	False
270.55	0.1	0.519	271.069	0	PA_with_intermediate	test	ward_and_allport	71	20.0	0.519	to_hand	poldrack-single-stim	s541	False
271.07	0.1	0.343	271.413	0	PA_with_intermediate	test	ward_and_allport	82	20.0	0.343	to_board	poldrack-single-stim	s541	False
271.417	0.1	0.529	271.946	0	PA_with_intermediate	test	ward_and_allport	89	20.0	0.529	to_hand	poldrack-single-stim	s541	False
271.948	0.1	0.209	272.157	0	PA_with_intermediate	test	ward_and_allport	71	20.0	0.209	to_board	poldrack-single-stim	s541	False
272.162	1.0	2.136	272.161	0	PA_with_intermediate	test	ward_and_allport	-1	20.0	n/a	feedback	poldrack-single-stim	s541	False
274.303	5.833	5.833	280.136	1	PA_with_intermediate	test	ward_and_allport	82	21.0	5.833	to_hand	poldrack-single-stim	s541	False
280.136	0.1	0.307	280.443	0	PA_with_intermediate	test	ward_and_allport	89	21.0	0.307	to_board	poldrack-single-stim	s541	False
280.449	0.1	0.875	281.324	0	PA_with_intermediate	test	ward_and_allport	82	21.0	0.875	to_hand	poldrack-single-stim	s541	False
281.325	0.1	0.308	281.633	0	PA_with_intermediate	test	ward_and_allport	71	21.0	0.308	to_board	poldrack-single-stim	s541	False
281.637	0.1	1.116	282.753	0	PA_with_intermediate	test	ward_and_allport	89	21.0	1.116	to_hand	poldrack-single-stim	s541	False
282.755	0.1	0.3	283.055	0	PA_with_intermediate	test	ward_and_allport	71	21.0	0.3	to_board	poldrack-single-stim	s541	False
283.061	1.0	2.0	283.06	0	PA_with_intermediate	test	ward_and_allport	-1	21.0	n/a	feedback	poldrack-single-stim	s541	False
285.066	5.169	5.169	290.235	1	PA_with_intermediate	test	ward_and_allport	71	22.0	5.169	to_hand	poldrack-single-stim	s541	False
290.236	0.1	0.289	290.525	0	PA_with_intermediate	test	ward_and_allport	89	22.0	0.289	to_board	poldrack-single-stim	s541	False
290.531	0.1	0.808	291.339	0	PA_with_intermediate	test	ward_and_allport	71	22.0	0.808	to_hand	poldrack-single-stim	s541	False
291.34	0.1	0.275	291.615	0	PA_with_intermediate	test	ward_and_allport	82	22.0	0.275	to_board	poldrack-single-stim	s541	False
291.62	0.1	0.756	292.376	0	PA_with_intermediate	test	ward_and_allport	89	22.0	0.756	to_hand	poldrack-single-stim	s541	False
292.378	0.1	0.241	292.619	0	PA_with_intermediate	test	ward_and_allport	82	22.0	0.241	to_board	poldrack-single-stim	s541	False
292.63	1.0	2.0	292.629	0	PA_with_intermediate	test	ward_and_allport	-1	22.0	n/a	feedback	poldrack-single-stim	s541	False
294.636	6.998	6.998	301.634	1	PA_without_intermediate	test	ward_and_allport	82	23.0	6.998	to_hand	poldrack-single-stim	s541	False
301.635	0.1	4.903	306.538	0	PA_without_intermediate	test	ward_and_allport	89	23.0	4.903	to_board	poldrack-single-stim	s541	False
306.544	0.1	1.424	307.968	0	PA_without_intermediate	test	ward_and_allport	82	23.0	1.424	to_hand	poldrack-single-stim	s541	False
307.969	0.1	0.413	308.382	0	PA_without_intermediate	test	ward_and_allport	71	23.0	0.413	to_board	poldrack-single-stim	s541	False
308.39	0.1	1.754	310.144	0	PA_without_intermediate	test	ward_and_allport	82	23.0	1.754	to_hand	poldrack-single-stim	s541	False
310.146	0.1	0.285	310.431	0	PA_without_intermediate	test	ward_and_allport	89	23.0	0.285	to_board	poldrack-single-stim	s541	False
310.44	1.0	2.408	310.439	0	PA_without_intermediate	test	ward_and_allport	-1	23.0	n/a	feedback	poldrack-single-stim	s541	False
312.854	5.031	5.031	317.885	1	PA_with_intermediate	test	ward_and_allport	82	24.0	5.031	to_hand	poldrack-single-stim	s541	False
317.886	0.1	0.303	318.189	0	PA_with_intermediate	test	ward_and_allport	71	24.0	0.303	to_board	poldrack-single-stim	s541	False
318.196	0.1	0.943	319.139	0	PA_with_intermediate	test	ward_and_allport	82	24.0	0.943	to_hand	poldrack-single-stim	s541	False
319.14	0.1	0.31	319.45	0	PA_with_intermediate	test	ward_and_allport	89	24.0	0.31	to_board	poldrack-single-stim	s541	False
319.456	0.1	1.068	320.524	0	PA_with_intermediate	test	ward_and_allport	71	24.0	1.068	to_hand	poldrack-single-stim	s541	False
320.525	0.1	0.242	320.767	0	PA_with_intermediate	test	ward_and_allport	82	24.0	0.242	to_board	poldrack-single-stim	s541	False
320.777	1.0	3.768	320.776	0	PA_with_intermediate	test	ward_and_allport	-1	24.0	n/a	feedback	poldrack-single-stim	s541	False
324.552	3.771	3.771	328.323	1	PA_with_intermediate	test	ward_and_allport	89	25.0	3.771	to_hand	poldrack-single-stim	s541	False
328.323	0.1	0.351	328.674	0	PA_with_intermediate	test	ward_and_allport	82	25.0	0.351	to_board	poldrack-single-stim	s541	False
328.681	0.1	1.386	330.067	0	PA_with_intermediate	test	ward_and_allport	89	25.0	1.386	to_hand	poldrack-single-stim	s541	False
330.067	0.1	0.228	330.295	0	PA_with_intermediate	test	ward_and_allport	71	25.0	0.228	to_board	poldrack-single-stim	s541	False
330.302	0.1	0.832	331.134	0	PA_with_intermediate	test	ward_and_allport	82	25.0	0.832	to_hand	poldrack-single-stim	s541	False
331.135	0.1	0.198	331.333	0	PA_with_intermediate	test	ward_and_allport	71	25.0	0.198	to_board	poldrack-single-stim	s541	False
331.343	1.0	2.68	331.342	0	PA_with_intermediate	test	ward_and_allport	-1	25.0	n/a	feedback	poldrack-single-stim	s541	False
334.029	4.042	4.042	338.071	1	PA_without_intermediate	test	ward_and_allport	82	26.0	4.042	to_hand	poldrack-single-stim	s541	False
338.072	0.1	0.312	338.384	0	PA_without_intermediate	test	ward_and_allport	71	26.0	0.312	to_board	poldrack-single-stim	s541	False
338.39	0.1	0.321	338.711	0	PA_without_intermediate	test	ward_and_allport	82	26.0	0.321	to_hand	poldrack-single-stim	s541	False
338.713	0.1	0.312	339.025	0	PA_without_intermediate	test	ward_and_allport	71	26.0	0.312	to_board	poldrack-single-stim	s541	False
339.031	0.1	0.753	339.784	0	PA_without_intermediate	test	ward_and_allport	82	26.0	0.753	to_hand	poldrack-single-stim	s541	False
339.785	0.1	0.267	340.052	0	PA_without_intermediate	test	ward_and_allport	89	26.0	0.267	to_board	poldrack-single-stim	s541	False
340.063	1.0	3.224	340.062	0	PA_without_intermediate	test	ward_and_allport	-1	26.0	n/a	feedback	poldrack-single-stim	s541	False
343.296	3.702	3.702	346.998	1	PA_without_intermediate	test	ward_and_allport	82	27.0	3.702	to_hand	poldrack-single-stim	s541	False
346.998	0.1	0.307	347.305	0	PA_without_intermediate	test	ward_and_allport	71	27.0	0.307	to_board	poldrack-single-stim	s541	False
347.312	0.1	0.336	347.648	0	PA_without_intermediate	test	ward_and_allport	82	27.0	0.336	to_hand	poldrack-single-stim	s541	False
347.649	0.1	0.336	347.985	0	PA_without_intermediate	test	ward_and_allport	89	27.0	0.336	to_board	poldrack-single-stim	s541	False
347.992	0.1	0.501	348.493	0	PA_without_intermediate	test	ward_and_allport	82	27.0	0.501	to_hand	poldrack-single-stim	s541	False
348.494	0.1	0.365	348.859	0	PA_without_intermediate	test	ward_and_allport	71	27.0	0.365	to_board	poldrack-single-stim	s541	False
348.866	1.0	3.36	348.865	0	PA_without_intermediate	test	ward_and_allport	-1	27.0	n/a	feedback	poldrack-single-stim	s541	False
352.234	5.541	5.541	357.775	1	PA_without_intermediate	test	ward_and_allport	89	28.0	5.541	to_hand	poldrack-single-stim	s541	False
357.775	0.1	0.292	358.067	0	PA_without_intermediate	test	ward_and_allport	71	28.0	0.292	to_board	poldrack-single-stim	s541	False
358.075	0.1	0.324	358.399	0	PA_without_intermediate	test	ward_and_allport	89	28.0	0.324	to_hand	poldrack-single-stim	s541	False
358.4	0.1	0.31	358.71	0	PA_without_intermediate	test	ward_and_allport	71	28.0	0.31	to_board	poldrack-single-stim	s541	False
358.717	0.1	0.361	359.078	0	PA_without_intermediate	test	ward_and_allport	89	28.0	0.361	to_hand	poldrack-single-stim	s541	False
359.078	0.1	0.27	359.348	0	PA_without_intermediate	test	ward_and_allport	82	28.0	0.27	to_board	poldrack-single-stim	s541	False
359.36	1.0	2.0	359.359	0	PA_without_intermediate	test	ward_and_allport	-1	28.0	n/a	feedback	poldrack-single-stim	s541	False
361.367	5.45	5.45	366.817	1	PA_without_intermediate	test	ward_and_allport	82	29.0	5.45	to_hand	poldrack-single-stim	s541	False
366.818	0.1	0.274	367.092	0	PA_without_intermediate	test	ward_and_allport	71	29.0	0.274	to_board	poldrack-single-stim	s541	False
367.1	0.1	0.35	367.45	0	PA_without_intermediate	test	ward_and_allport	82	29.0	0.35	to_hand	poldrack-single-stim	s541	False
367.452	0.1	0.295	367.747	0	PA_without_intermediate	test	ward_and_allport	71	29.0	0.295	to_board	poldrack-single-stim	s541	False
367.753	0.1	0.321	368.074	0	PA_without_intermediate	test	ward_and_allport	82	29.0	0.321	to_hand	poldrack-single-stim	s541	False
368.076	0.1	0.27	368.346	0	PA_without_intermediate	test	ward_and_allport	89	29.0	0.27	to_board	poldrack-single-stim	s541	False
368.358	1.0	2.408	368.357	0	PA_without_intermediate	test	ward_and_allport	-1	29.0	n/a	feedback	poldrack-single-stim	s541	False
375.779	6.149	6.149	381.928	1	PA_with_intermediate	test	ward_and_allport	82	30.0	6.149	to_hand	poldrack-single-stim	s541	False
381.93	0.1	0.337	382.267	0	PA_with_intermediate	test	ward_and_allport	89	30.0	0.337	to_board	poldrack-single-stim	s541	False
382.274	0.1	0.305	382.579	0	PA_with_intermediate	test	ward_and_allport	82	30.0	0.305	to_hand	poldrack-single-stim	s541	False
382.579	0.1	0.412	382.991	0	PA_with_intermediate	test	ward_and_allport	89	30.0	0.412	to_board	poldrack-single-stim	s541	False
382.998	0.1	2.343	385.341	0	PA_with_intermediate	test	ward_and_allport	89	30.0	2.343	to_hand	poldrack-single-stim	s541	False
385.343	0.1	0.684	386.027	0	PA_with_intermediate	test	ward_and_allport	71	30.0	0.684	to_board	poldrack-single-stim	s541	False
386.035	0.1	2.5	388.535	0	PA_with_intermediate	test	ward_and_allport	89	30.0	2.5	to_hand	poldrack-single-stim	s541	False
388.536	0.1	0.315	388.851	0	PA_with_intermediate	test	ward_and_allport	82	30.0	0.315	to_board	poldrack-single-stim	s541	False
388.859	0.1	0.961	389.82	0	PA_with_intermediate	test	ward_and_allport	71	30.0	0.961	to_hand	poldrack-single-stim	s541	False
389.822	0.1	0.245	390.067	0	PA_with_intermediate	test	ward_and_allport	89	30.0	0.245	to_board	poldrack-single-stim	s541	False
390.076	0.1	0.774	390.85	0	PA_with_intermediate	test	ward_and_allport	82	30.0	0.774	to_hand	poldrack-single-stim	s541	False
390.85	0.1	0.214	391.064	0	PA_with_intermediate	test	ward_and_allport	89	30.0	0.214	to_board	poldrack-single-stim	s541	False
391.073	1.0	2.136	391.072	0	PA_with_intermediate	test	ward_and_allport	-1	30.0	n/a	feedback	poldrack-single-stim	s541	False
393.216	4.503	4.503	397.719	1	PA_without_intermediate	test	ward_and_allport	82	31.0	4.503	to_hand	poldrack-single-stim	s541	False
397.72	0.1	0.312	398.032	0	PA_without_intermediate	test	ward_and_allport	89	31.0	0.312	to_board	poldrack-single-stim	s541	False
398.041	0.1	0.579	398.62	0	PA_without_intermediate	test	ward_and_allport	82	31.0	0.579	to_hand	poldrack-single-stim	s541	False
398.62	0.1	0.26	398.88	0	PA_without_intermediate	test	ward_and_allport	71	31.0	0.26	to_board	poldrack-single-stim	s541	False
398.888	0.1	0.666	399.554	0	PA_without_intermediate	test	ward_and_allport	82	31.0	0.666	to_hand	poldrack-single-stim	s541	False
399.555	0.1	0.236	399.791	0	PA_without_intermediate	test	ward_and_allport	89	31.0	0.236	to_board	poldrack-single-stim	s541	False
399.803	1.0	5.128	399.802	0	PA_without_intermediate	test	ward_and_allport	-1	31.0	n/a	feedback	poldrack-single-stim	s541	False
404.94	6.446	6.446	411.386	1	PA_without_intermediate	test	ward_and_allport	71	32.0	6.446	to_hand	poldrack-single-stim	s541	False
411.387	0.1	0.306	411.693	0	PA_without_intermediate	test	ward_and_allport	82	32.0	0.306	to_board	poldrack-single-stim	s541	False
411.701	0.1	1.026	412.727	0	PA_without_intermediate	test	ward_and_allport	71	32.0	1.026	to_hand	poldrack-single-stim	s541	False
412.728	0.1	0.272	413.0	0	PA_without_intermediate	test	ward_and_allport	82	32.0	0.272	to_board	poldrack-single-stim	s541	False
413.009	0.1	0.674	413.683	0	PA_without_intermediate	test	ward_and_allport	71	32.0	0.674	to_hand	poldrack-single-stim	s541	False
413.683	0.1	0.205	413.888	0	PA_without_intermediate	test	ward_and_allport	89	32.0	0.205	to_board	poldrack-single-stim	s541	False
413.901	1.0	2.136	413.9	0	PA_without_intermediate	test	ward_and_allport	-1	32.0	n/a	feedback	poldrack-single-stim	s541	False
416.044	4.239	4.239	420.283	1	PA_without_intermediate	test	ward_and_allport	82	33.0	4.239	to_hand	poldrack-single-stim	s541	False
420.285	0.1	0.301	420.586	0	PA_without_intermediate	test	ward_and_allport	89	33.0	0.301	to_board	poldrack-single-stim	s541	False
420.594	0.1	0.319	420.913	0	PA_without_intermediate	test	ward_and_allport	82	33.0	0.319	to_hand	poldrack-single-stim	s541	False
420.913	0.1	0.379	421.292	0	PA_without_intermediate	test	ward_and_allport	89	33.0	0.379	to_board	poldrack-single-stim	s541	False
421.302	0.1	0.373	421.675	0	PA_without_intermediate	test	ward_and_allport	82	33.0	0.373	to_hand	poldrack-single-stim	s541	False
421.676	0.1	0.307	421.983	0	PA_without_intermediate	test	ward_and_allport	71	33.0	0.307	to_board	poldrack-single-stim	s541	False
421.994	1.0	5.264	421.993	0	PA_without_intermediate	test	ward_and_allport	-1	33.0	n/a	feedback	poldrack-single-stim	s541	False
427.266	4.697	4.697	431.963	1	PA_with_intermediate	test	ward_and_allport	82	34.0	4.697	to_hand	poldrack-single-stim	s541	False
431.964	0.1	0.317	432.281	0	PA_with_intermediate	test	ward_and_allport	89	34.0	0.317	to_board	poldrack-single-stim	s541	False
432.29	0.1	0.917	433.207	0	PA_with_intermediate	test	ward_and_allport	82	34.0	0.917	to_hand	poldrack-single-stim	s541	False
433.208	0.1	0.271	433.479	0	PA_with_intermediate	test	ward_and_allport	71	34.0	0.271	to_board	poldrack-single-stim	s541	False
433.488	0.1	0.287	433.775	0	PA_with_intermediate	test	ward_and_allport	89	34.0	0.287	to_hand	poldrack-single-stim	s541	False
433.777	0.1	0.305	434.082	0	PA_with_intermediate	test	ward_and_allport	82	34.0	0.305	to_board	poldrack-single-stim	s541	False
434.094	1.0	4.04	434.093	0	PA_with_intermediate	test	ward_and_allport	-1	34.0	n/a	feedback	poldrack-single-stim	s541	False
438.142	6.003	6.003	444.145	1	PA_with_intermediate	test	ward_and_allport	71	35.0	6.003	to_hand	poldrack-single-stim	s541	False
444.147	0.1	0.33	444.477	0	PA_with_intermediate	test	ward_and_allport	82	35.0	0.33	to_board	poldrack-single-stim	s541	False
444.486	0.1	0.314	444.8	0	PA_with_intermediate	test	ward_and_allport	71	35.0	0.314	to_hand	poldrack-single-stim	s541	False
444.801	0.1	0.352	445.153	0	PA_with_intermediate	test	ward_and_allport	89	35.0	0.352	to_board	poldrack-single-stim	s541	False
445.163	0.1	0.3	445.463	0	PA_with_intermediate	test	ward_and_allport	82	35.0	0.3	to_hand	poldrack-single-stim	s541	False
445.464	0.1	0.317	445.781	0	PA_with_intermediate	test	ward_and_allport	89	35.0	0.317	to_board	poldrack-single-stim	s541	False
445.795	1.0	2.136	445.794	0	PA_with_intermediate	test	ward_and_allport	-1	35.0	n/a	feedback	poldrack-single-stim	s541	False
447.94	3.948	3.948	451.888	1	PA_with_intermediate	test	ward_and_allport	71	36.0	3.948	to_hand	poldrack-single-stim	s541	False
451.888	0.1	0.319	452.207	0	PA_with_intermediate	test	ward_and_allport	82	36.0	0.319	to_board	poldrack-single-stim	s541	False
452.217	0.1	0.315	452.532	0	PA_with_intermediate	test	ward_and_allport	71	36.0	0.315	to_hand	poldrack-single-stim	s541	False
452.532	0.1	0.324	452.856	0	PA_with_intermediate	test	ward_and_allport	89	36.0	0.324	to_board	poldrack-single-stim	s541	False
452.866	0.1	0.319	453.185	0	PA_with_intermediate	test	ward_and_allport	82	36.0	0.319	to_hand	poldrack-single-stim	s541	False
453.186	0.1	0.315	453.501	0	PA_with_intermediate	test	ward_and_allport	89	36.0	0.315	to_board	poldrack-single-stim	s541	False
453.511	1.0	2.408	453.51	0	PA_with_intermediate	test	ward_and_allport	-1	36.0	n/a	feedback	poldrack-single-stim	s541	False
455.926	6.79	6.79	462.716	1	PA_without_intermediate	test	ward_and_allport	89	37.0	6.79	to_hand	poldrack-single-stim	s541	False
462.717	0.1	0.257	462.974	0	PA_without_intermediate	test	ward_and_allport	71	37.0	0.257	to_board	poldrack-single-stim	s541	False
462.98	0.1	0.974	463.954	0	PA_without_intermediate	test	ward_and_allport	89	37.0	0.974	to_hand	poldrack-single-stim	s541	False
463.955	0.1	0.252	464.207	0	PA_without_intermediate	test	ward_and_allport	82	37.0	0.252	to_board	poldrack-single-stim	s541	False
464.216	0.1	1.144	465.36	0	PA_without_intermediate	test	ward_and_allport	89	37.0	1.144	to_hand	poldrack-single-stim	s541	False
465.361	0.1	0.201	465.562	0	PA_without_intermediate	test	ward_and_allport	71	37.0	0.201	to_board	poldrack-single-stim	s541	False
465.572	1.0	2.68	465.571	0	PA_without_intermediate	test	ward_and_allport	-1	37.0	n/a	feedback	poldrack-single-stim	s541	False
468.261	3.933	3.933	472.194	1	PA_with_intermediate	test	ward_and_allport	71	38.0	3.933	to_hand	poldrack-single-stim	s541	False
472.195	0.1	0.373	472.568	0	PA_with_intermediate	test	ward_and_allport	82	38.0	0.373	to_board	poldrack-single-stim	s541	False
472.575	0.1	0.289	472.864	0	PA_with_intermediate	test	ward_and_allport	71	38.0	0.289	to_hand	poldrack-single-stim	s541	False
472.864	0.1	0.317	473.181	0	PA_with_intermediate	test	ward_and_allport	89	38.0	0.317	to_board	poldrack-single-stim	s541	False
473.19	0.1	0.328	473.518	0	PA_with_intermediate	test	ward_and_allport	82	38.0	0.328	to_hand	poldrack-single-stim	s541	False
473.519	0.1	0.251	473.77	0	PA_with_intermediate	test	ward_and_allport	71	38.0	0.251	to_board	poldrack-single-stim	s541	False
473.783	1.0	4.72	473.782	0	PA_with_intermediate	test	ward_and_allport	-1	38.0	n/a	feedback	poldrack-single-stim	s541	False
478.511	7.505	7.505	486.016	1	PA_without_intermediate	test	ward_and_allport	89	39.0	7.505	to_hand	poldrack-single-stim	s541	False
486.018	0.1	0.303	486.321	0	PA_without_intermediate	test	ward_and_allport	71	39.0	0.303	to_board	poldrack-single-stim	s541	False
486.33	0.1	0.287	486.617	0	PA_without_intermediate	test	ward_and_allport	89	39.0	0.287	to_hand	poldrack-single-stim	s541	False
486.619	0.1	0.302	486.921	0	PA_without_intermediate	test	ward_and_allport	71	39.0	0.302	to_board	poldrack-single-stim	s541	False
486.93	0.1	0.336	487.266	0	PA_without_intermediate	test	ward_and_allport	89	39.0	0.336	to_hand	poldrack-single-stim	s541	False
487.267	0.1	0.293	487.56	0	PA_without_intermediate	test	ward_and_allport	82	39.0	0.293	to_board	poldrack-single-stim	s541	False
487.573	1.0	3.224	487.572	0	PA_without_intermediate	test	ward_and_allport	-1	39.0	n/a	feedback	poldrack-single-stim	s541	False
490.807	6.099	6.099	496.906	1	PA_without_intermediate	test	ward_and_allport	82	40.0	6.099	to_hand	poldrack-single-stim	s541	False
496.908	0.1	0.346	497.254	0	PA_without_intermediate	test	ward_and_allport	71	40.0	0.346	to_board	poldrack-single-stim	s541	False
497.262	0.1	0.345	497.607	0	PA_without_intermediate	test	ward_and_allport	82	40.0	0.345	to_hand	poldrack-single-stim	s541	False
497.609	0.1	0.328	497.937	0	PA_without_intermediate	test	ward_and_allport	89	40.0	0.328	to_board	poldrack-single-stim	s541	False
497.947	0.1	0.338	498.285	0	PA_without_intermediate	test	ward_and_allport	82	40.0	0.338	to_hand	poldrack-single-stim	s541	False
498.285	0.1	0.321	498.606	0	PA_without_intermediate	test	ward_and_allport	71	40.0	0.321	to_board	poldrack-single-stim	s541	False
498.621	1.0	2.272	498.62	0	PA_without_intermediate	test	ward_and_allport	-1	40.0	n/a	feedback	poldrack-single-stim	s541	False
500.901	5.109	5.109	506.01	1	PA_with_intermediate	test	ward_and_allport	71	41.0	5.109	to_hand	poldrack-single-stim	s541	False
506.012	0.1	0.295	506.307	0	PA_with_intermediate	test	ward_and_allport	89	41.0	0.295	to_board	poldrack-single-stim	s541	False
506.314	0.1	0.304	506.618	0	PA_with_intermediate	test	ward_and_allport	71	41.0	0.304	to_hand	poldrack-single-stim	s541	False
506.619	0.1	0.343	506.962	0	PA_with_intermediate	test	ward_and_allport	82	41.0	0.343	to_board	poldrack-single-stim	s541	False
506.971	0.1	0.38	507.351	0	PA_with_intermediate	test	ward_and_allport	89	41.0	0.38	to_hand	poldrack-single-stim	s541	False
507.351	0.1	0.349	507.7	0	PA_with_intermediate	test	ward_and_allport	71	41.0	0.349	to_board	poldrack-single-stim	s541	False
507.715	1.0	3.632	507.714	0	PA_with_intermediate	test	ward_and_allport	-1	41.0	n/a	feedback	poldrack-single-stim	s541	False
511.357	5.49	5.49	516.847	1	PA_without_intermediate	test	ward_and_allport	82	42.0	5.49	to_hand	poldrack-single-stim	s541	False
516.848	0.1	0.365	517.213	0	PA_without_intermediate	test	ward_and_allport	89	42.0	0.365	to_board	poldrack-single-stim	s541	False
517.221	0.1	0.386	517.607	0	PA_without_intermediate	test	ward_and_allport	82	42.0	0.386	to_hand	poldrack-single-stim	s541	False
517.608	0.1	0.426	518.034	0	PA_without_intermediate	test	ward_and_allport	89	42.0	0.426	to_board	poldrack-single-stim	s541	False
518.042	0.1	0.367	518.409	0	PA_without_intermediate	test	ward_and_allport	82	42.0	0.367	to_hand	poldrack-single-stim	s541	False
518.41	0.1	0.338	518.748	0	PA_without_intermediate	test	ward_and_allport	71	42.0	0.338	to_board	poldrack-single-stim	s541	False
518.763	1.0	2.408	518.762	0	PA_without_intermediate	test	ward_and_allport	-1	42.0	n/a	feedback	poldrack-single-stim	s541	False
521.181	4.266	4.266	525.447	1	PA_without_intermediate	test	ward_and_allport	89	43.0	4.266	to_hand	poldrack-single-stim	s541	False
525.448	0.1	0.36	525.808	0	PA_without_intermediate	test	ward_and_allport	82	43.0	0.36	to_board	poldrack-single-stim	s541	False
525.816	0.1	0.369	526.185	0	PA_without_intermediate	test	ward_and_allport	89	43.0	0.369	to_hand	poldrack-single-stim	s541	False
526.186	0.1	0.36	526.546	0	PA_without_intermediate	test	ward_and_allport	71	43.0	0.36	to_board	poldrack-single-stim	s541	False
526.556	0.1	1.355	527.911	0	PA_without_intermediate	test	ward_and_allport	89	43.0	1.355	to_hand	poldrack-single-stim	s541	False
527.912	0.1	0.624	528.536	0	PA_without_intermediate	test	ward_and_allport	82	43.0	0.624	to_board	poldrack-single-stim	s541	False
528.548	1.0	2.0	528.547	0	PA_without_intermediate	test	ward_and_allport	-1	43.0	n/a	feedback	poldrack-single-stim	s541	False
530.555	3.839	3.839	534.394	1	PA_with_intermediate	test	ward_and_allport	82	44.0	3.839	to_hand	poldrack-single-stim	s541	False
534.396	0.1	0.303	534.699	0	PA_with_intermediate	test	ward_and_allport	71	44.0	0.303	to_board	poldrack-single-stim	s541	False
534.707	0.1	0.284	534.991	0	PA_with_intermediate	test	ward_and_allport	82	44.0	0.284	to_hand	poldrack-single-stim	s541	False
534.991	0.1	0.252	535.243	0	PA_with_intermediate	test	ward_and_allport	71	44.0	0.252	to_board	poldrack-single-stim	s541	False
535.253	0.1	4.817	540.07	0	PA_with_intermediate	test	ward_and_allport	71	44.0	4.817	to_hand	poldrack-single-stim	s541	False
540.072	0.1	0.274	540.346	0	PA_with_intermediate	test	ward_and_allport	89	44.0	0.274	to_board	poldrack-single-stim	s541	False
540.356	0.1	2.106	542.462	0	PA_with_intermediate	test	ward_and_allport	71	44.0	2.106	to_hand	poldrack-single-stim	s541	False
542.463	0.1	0.396	542.859	0	PA_with_intermediate	test	ward_and_allport	82	44.0	0.396	to_board	poldrack-single-stim	s541	False
542.871	0.1	1.069	543.94	0	PA_with_intermediate	test	ward_and_allport	89	44.0	1.069	to_hand	poldrack-single-stim	s541	False
543.941	0.1	0.25	544.191	0	PA_with_intermediate	test	ward_and_allport	71	44.0	0.25	to_board	poldrack-single-stim	s541	False
544.202	0.1	0.678	544.88	0	PA_with_intermediate	test	ward_and_allport	82	44.0	0.678	to_hand	poldrack-single-stim	s541	False
544.881	0.1	0.27	545.151	0	PA_with_intermediate	test	ward_and_allport	71	44.0	0.27	to_board	poldrack-single-stim	s541	False
545.161	1.0	2.0	545.16	0	PA_with_intermediate	test	ward_and_allport	-1	44.0	n/a	feedback	poldrack-single-stim	s541	False
552.17	6.003	6.003	558.173	1	PA_with_intermediate	test	ward_and_allport	82	45.0	6.003	to_hand	poldrack-single-stim	s541	False
558.174	0.1	0.346	558.52	0	PA_with_intermediate	test	ward_and_allport	71	45.0	0.346	to_board	poldrack-single-stim	s541	False
558.529	0.1	0.402	558.931	0	PA_with_intermediate	test	ward_and_allport	82	45.0	0.402	to_hand	poldrack-single-stim	s541	False
558.932	0.1	0.325	559.257	0	PA_with_intermediate	test	ward_and_allport	89	45.0	0.325	to_board	poldrack-single-stim	s541	False
559.268	0.1	0.724	559.992	0	PA_with_intermediate	test	ward_and_allport	71	45.0	0.724	to_hand	poldrack-single-stim	s541	False
559.993	0.1	0.315	560.308	0	PA_with_intermediate	test	ward_and_allport	89	45.0	0.315	to_board	poldrack-single-stim	s541	False
560.325	1.0	2.0	560.324	0	PA_with_intermediate	test	ward_and_allport	-1	45.0	n/a	feedback	poldrack-single-stim	s541	False
562.332	3.75	3.75	566.082	1	PA_with_intermediate	test	ward_and_allport	89	46.0	3.75	to_hand	poldrack-single-stim	s541	False
566.083	0.1	0.419	566.502	0	PA_with_intermediate	test	ward_and_allport	82	46.0	0.419	to_board	poldrack-single-stim	s541	False
566.511	0.1	0.898	567.409	0	PA_with_intermediate	test	ward_and_allport	89	46.0	0.898	to_hand	poldrack-single-stim	s541	False
567.411	0.1	0.203	567.614	0	PA_with_intermediate	test	ward_and_allport	71	46.0	0.203	to_board	poldrack-single-stim	s541	False
567.625	0.1	0.313	567.938	0	PA_with_intermediate	test	ward_and_allport	82	46.0	0.313	to_hand	poldrack-single-stim	s541	False
567.939	0.1	0.27	568.209	0	PA_with_intermediate	test	ward_and_allport	71	46.0	0.27	to_board	poldrack-single-stim	s541	False
568.221	1.0	2.408	568.22	0	PA_with_intermediate	test	ward_and_allport	-1	46.0	n/a	feedback	poldrack-single-stim	s541	False
