onset	duration	correct	correct_response	cue	experiment_exp_id	flanker_location	flanker_middle_direction	flanker_type	key_press	response_time	worker_id
3.510048	1.7	1.0	71.0	spatial	attention_network_task	down	right	incongruent	71	0.728	s465
6.116864	1.7	1.0	71.0	double	attention_network_task	up	right	incongruent	71	0.585	s465
8.721727999999999	1.7	1.0	71.0	double	attention_network_task	down	right	incongruent	71	0.645	s465
11.327727999999999	1.7	1.0	89.0	double	attention_network_task	up	left	incongruent	89	0.513	s465
13.934	1.7	1.0	89.0	double	attention_network_task	down	left	congruent	89	0.569	s465
16.542	1.7	1.0	71.0	spatial	attention_network_task	down	right	incongruent	71	0.516	s465
19.148728	1.7	1.0	71.0	spatial	attention_network_task	up	right	congruent	71	0.542	s465
21.755	1.7	1.0	89.0	spatial	attention_network_task	up	left	congruent	89	0.575	s465
24.361	1.7	1.0	71.0	spatial	attention_network_task	up	right	incongruent	71	0.506	s465
26.968728	1.7	1.0	71.0	double	attention_network_task	down	right	congruent	71	0.568	s465
29.578	1.7	1.0	89.0	spatial	attention_network_task	up	left	incongruent	89	0.435	s465
32.183864	1.7	1.0	89.0	spatial	attention_network_task	up	left	congruent	89	0.524	s465
34.790728	1.7	1.0	89.0	spatial	attention_network_task	down	left	congruent	89	0.506	s465
37.397	1.7	1.0	71.0	spatial	attention_network_task	down	right	congruent	71	0.47	s465
40.002	1.7	1.0	71.0	double	attention_network_task	up	right	incongruent	71	0.817	s465
42.607	1.7	1.0	89.0	double	attention_network_task	down	left	congruent	89	0.422	s465
45.212	1.7	1.0	89.0	spatial	attention_network_task	down	left	incongruent	89	0.555	s465
47.819	1.7	1.0	89.0	double	attention_network_task	down	left	congruent	89	0.472	s465
50.425	1.7	1.0	89.0	spatial	attention_network_task	down	left	incongruent	89	0.475	s465
53.031728	1.7	1.0	71.0	double	attention_network_task	up	right	congruent	71	0.378	s465
55.636864	1.7	1.0	71.0	double	attention_network_task	up	right	incongruent	71	0.583	s465
58.242912	1.7	1.0	89.0	double	attention_network_task	down	left	incongruent	89	0.404	s465
60.850728000000004	1.7	1.0	89.0	spatial	attention_network_task	up	left	congruent	89	0.476	s465
63.456864	1.7	1.0	71.0	spatial	attention_network_task	up	right	congruent	71	0.488	s465
66.066864	1.7	1.0	71.0	double	attention_network_task	down	right	congruent	71	0.495	s465
68.673	1.7	1.0	89.0	double	attention_network_task	up	left	congruent	89	0.47	s465
71.278	1.7	1.0	71.0	spatial	attention_network_task	down	right	incongruent	71	0.373	s465
73.883	1.7	1.0	71.0	spatial	attention_network_task	down	right	congruent	71	0.421	s465
76.489	1.7	1.0	71.0	double	attention_network_task	up	right	incongruent	71	0.464	s465
79.095864	1.7	1.0	89.0	spatial	attention_network_task	up	left	incongruent	89	0.467	s465
81.70272800000001	1.7	1.0	71.0	double	attention_network_task	down	right	incongruent	71	0.535	s465
84.310864	1.7	1.0	89.0	spatial	attention_network_task	down	left	congruent	89	0.442	s465
86.915864	1.7	1.0	71.0	double	attention_network_task	up	right	congruent	71	0.347	s465
89.522	1.7	1.0	71.0	double	attention_network_task	up	right	incongruent	71	0.448	s465
92.127	1.7	1.0	89.0	spatial	attention_network_task	down	left	congruent	89	0.384	s465
94.73259200000001	1.7	1.0	89.0	double	attention_network_task	down	left	congruent	89	0.399	s465
97.337456	1.7	1.0	89.0	double	attention_network_task	up	left	congruent	89	0.517	s465
99.94359200000001	1.7	1.0	71.0	spatial	attention_network_task	up	right	incongruent	71	0.378	s465
102.551	1.7	1.0	71.0	spatial	attention_network_task	down	right	congruent	71	0.512	s465
105.156592	1.7	1.0	89.0	double	attention_network_task	up	left	congruent	89	0.463	s465
107.763	1.7	1.0	89.0	spatial	attention_network_task	down	left	congruent	89	0.598	s465
110.367592	1.7	1.0	71.0	spatial	attention_network_task	down	right	congruent	71	0.422	s465
112.974	1.7	1.0	71.0	spatial	attention_network_task	up	right	incongruent	71	0.478	s465
115.581	1.7	1.0	71.0	spatial	attention_network_task	down	right	incongruent	71	0.497	s465
118.186592	1.7	1.0	89.0	spatial	attention_network_task	up	left	incongruent	89	0.471	s465
120.792864	1.7	1.0	71.0	spatial	attention_network_task	down	right	incongruent	71	0.436	s465
123.397728	1.7	1.0	89.0	double	attention_network_task	down	left	incongruent	89	0.539	s465
126.003456	1.7	1.0	89.0	double	attention_network_task	down	left	incongruent	89	0.471	s465
128.611728	1.7	1.0	89.0	spatial	attention_network_task	down	left	incongruent	89	0.463	s465
131.217	1.7	1.0	89.0	spatial	attention_network_task	up	left	incongruent	89	0.515	s465
133.82259200000001	1.7	1.0	89.0	spatial	attention_network_task	up	left	incongruent	89	0.509	s465
136.428	1.7	1.0	71.0	spatial	attention_network_task	up	right	congruent	71	0.604	s465
139.034	1.7	1.0	71.0	double	attention_network_task	up	right	congruent	71	0.436	s465
141.641456	1.7	1.0	89.0	double	attention_network_task	down	left	incongruent	89	0.961	s465
144.248592	1.7	1.0	71.0	spatial	attention_network_task	down	right	congruent	71	0.658	s465
146.855	1.7	1.0	71.0	spatial	attention_network_task	down	right	congruent	71	0.517	s465
149.459864	1.7	1.0	71.0	spatial	attention_network_task	up	right	congruent	71	0.529	s465
152.06518400000002	1.7	1.0	71.0	spatial	attention_network_task	up	right	incongruent	71	0.494	s465
154.670864	1.7	1.0	89.0	double	attention_network_task	down	left	congruent	89	0.448	s465
157.277	1.7	1.0	89.0	spatial	attention_network_task	down	left	congruent	89	0.51	s465
159.883864	1.7	1.0	71.0	double	attention_network_task	up	right	incongruent	71	0.634	s465
162.488864	1.7	1.0	71.0	spatial	attention_network_task	down	right	incongruent	71	0.584	s465
165.095864	1.7	1.0	89.0	double	attention_network_task	up	left	incongruent	89	0.531	s465
167.700456	1.7	1.0	71.0	spatial	attention_network_task	up	right	congruent	71	0.42	s465
180.814	1.7	1.0	89.0	spatial	attention_network_task	up	left	congruent	89	0.548	s465
183.419728	1.7	1.0	89.0	double	attention_network_task	down	left	incongruent	89	0.694	s465
186.025	1.7	1.0	89.0	spatial	attention_network_task	up	left	congruent	89	0.489	s465
188.630864	1.7	1.0	89.0	spatial	attention_network_task	up	left	congruent	89	0.537	s465
191.235592	1.7	1.0	71.0	double	attention_network_task	down	right	incongruent	71	0.598	s465
193.84045600000002	1.7	1.0	71.0	double	attention_network_task	down	right	congruent	71	0.491	s465
196.447	1.7	1.0	71.0	double	attention_network_task	down	right	incongruent	71	0.534	s465
199.052864	1.7	1.0	89.0	spatial	attention_network_task	up	left	incongruent	89	0.513	s465
201.659864	1.7	1.0	89.0	double	attention_network_task	up	left	incongruent	89	0.546	s465
204.265864	1.7	1.0	71.0	spatial	attention_network_task	up	right	incongruent	71	0.46	s465
206.871864	1.7	1.0	71.0	double	attention_network_task	up	right	congruent	71	0.471	s465
209.479728	1.7	1.0	71.0	spatial	attention_network_task	down	right	incongruent	71	0.604	s465
212.084864	1.7	1.0	71.0	spatial	attention_network_task	up	right	incongruent	71	0.457	s465
214.690592	1.7	1.0	71.0	spatial	attention_network_task	up	right	incongruent	71	0.577	s465
217.296	1.7	1.0	89.0	double	attention_network_task	up	left	incongruent	89	0.656	s465
219.901864	1.7	1.0	71.0	double	attention_network_task	down	right	congruent	71	0.415	s465
222.507	1.7	1.0	89.0	spatial	attention_network_task	down	left	congruent	89	0.508	s465
225.112864	1.7	1.0	71.0	double	attention_network_task	up	right	incongruent	71	0.462	s465
227.71904800000002	1.7	1.0	71.0	spatial	attention_network_task	up	right	congruent	71	0.522	s465
230.325728	1.7	1.0	71.0	double	attention_network_task	up	right	congruent	71	0.542	s465
232.931864	1.7	1.0	71.0	double	attention_network_task	up	right	congruent	71	0.473	s465
235.539	1.7	1.0	89.0	double	attention_network_task	up	left	incongruent	89	0.5	s465
238.144864	1.7	1.0	89.0	spatial	attention_network_task	down	left	incongruent	89	0.522	s465
240.75	1.7	1.0	71.0	double	attention_network_task	down	right	congruent	71	0.519	s465
243.356864	1.7	1.0	89.0	spatial	attention_network_task	down	left	incongruent	89	0.581	s465
245.963728	1.7	1.0	89.0	double	attention_network_task	up	left	incongruent	89	0.642	s465
248.568728	1.7	1.0	89.0	spatial	attention_network_task	down	left	incongruent	89	0.59	s465
251.174864	1.7	1.0	71.0	double	attention_network_task	down	right	congruent	71	0.539	s465
253.781	1.7	1.0	89.0	double	attention_network_task	up	left	incongruent	89	0.559	s465
256.386864	1.7	1.0	89.0	double	attention_network_task	down	left	incongruent	89	0.741	s465
258.994	1.7	1.0	71.0	spatial	attention_network_task	down	right	congruent	71	0.523	s465
261.598728	1.7	1.0	71.0	double	attention_network_task	up	right	congruent	71	0.52	s465
264.205	1.7	1.0	89.0	spatial	attention_network_task	down	left	incongruent	89	0.662	s465
266.811	1.7	1.0	89.0	spatial	attention_network_task	up	left	incongruent	89	0.625	s465
269.418864	1.7	1.0	71.0	spatial	attention_network_task	up	right	congruent	71	0.536	s465
272.024728	1.7	1.0	71.0	spatial	attention_network_task	down	right	congruent	71	0.522	s465
274.632592	1.7	1.0	89.0	double	attention_network_task	down	left	incongruent	89	0.532	s465
277.24	1.7	1.0	89.0	double	attention_network_task	down	left	congruent	89	0.562	s465
279.845864	1.7	1.0	89.0	double	attention_network_task	up	left	congruent	89	0.538	s465
282.452864	1.7	1.0	89.0	spatial	attention_network_task	up	left	congruent	89	0.466	s465
285.059	1.7	1.0	89.0	double	attention_network_task	up	left	congruent	89	0.411	s465
287.663592	1.7	1.0	71.0	double	attention_network_task	down	right	incongruent	71	0.571	s465
290.269456	1.7	1.0	89.0	spatial	attention_network_task	down	left	congruent	89	0.545	s465
292.875864	1.7	1.0	89.0	spatial	attention_network_task	up	left	congruent	89	0.498	s465
295.480864	1.7	1.0	71.0	spatial	attention_network_task	up	right	congruent	71	0.435	s465
298.086	1.7	1.0	89.0	spatial	attention_network_task	down	left	incongruent	89	0.547	s465
300.693	1.7	1.0	71.0	double	attention_network_task	down	right	congruent	71	0.48	s465
303.299864	1.7	1.0	89.0	double	attention_network_task	down	left	congruent	89	0.452	s465
305.905	1.7	1.0	89.0	double	attention_network_task	up	left	congruent	89	0.615	s465
308.510864	1.7	1.0	71.0	double	attention_network_task	up	right	congruent	71	0.531	s465
311.116	1.7	1.0	89.0	double	attention_network_task	up	left	congruent	89	0.461	s465
313.723592	1.7	1.0	89.0	spatial	attention_network_task	down	left	congruent	89	0.596	s465
316.33	1.7	1.0	71.0	spatial	attention_network_task	up	right	incongruent	71	0.678	s465
318.935184	1.7	1.0	71.0	double	attention_network_task	down	right	incongruent	71	0.589	s465
321.54032	1.7	1.0	89.0	spatial	attention_network_task	down	left	congruent	89	0.437	s465
324.147	1.7	1.0	89.0	spatial	attention_network_task	up	left	congruent	89	0.493	s465
326.753864	1.7	1.0	71.0	spatial	attention_network_task	up	right	congruent	71	0.574	s465
329.359864	1.7	1.0	89.0	double	attention_network_task	down	left	incongruent	89	0.65	s465
331.965864	1.7	1.0	71.0	double	attention_network_task	down	right	incongruent	71	0.669	s465
334.573	1.7	1.0	89.0	double	attention_network_task	up	left	incongruent	89	0.709	s465
337.178864	1.7	1.0	71.0	spatial	attention_network_task	down	right	incongruent	71	0.622	s465
339.783048	1.7	1.0	89.0	spatial	attention_network_task	up	left	incongruent	89	0.632	s465
342.389864	1.7	1.0	71.0	double	attention_network_task	up	right	incongruent	71	0.62	s465
344.995592	1.7	1.0	71.0	double	attention_network_task	down	right	incongruent	71	0.619	s465
