onset	duration	block_duration	movement_onset	planning	condition	exp_stage	experiment_exp_id	key_press	problem_id	response_time	trial_id	trial_type	worker_id	junk
3.017	3.188	3.188	6.205	1	UA_with_intermediate	practice	ward_and_allport	89	0.0	3.188	to_hand	poldrack-single-stim	s643	False
6.206	0.1	0.42	6.626	0	UA_with_intermediate	practice	ward_and_allport	82	0.0	0.42	to_board	poldrack-single-stim	s643	False
6.629	0.1	5.17	11.799	0	UA_with_intermediate	practice	ward_and_allport	82	0.0	5.17	to_hand	poldrack-single-stim	s643	False
11.8	0.1	0.724	12.524	0	UA_with_intermediate	practice	ward_and_allport	89	0.0	0.724	to_board	poldrack-single-stim	s643	False
12.526	0.1	2.169	14.695	0	UA_with_intermediate	practice	ward_and_allport	71	0.0	2.169	to_hand	poldrack-single-stim	s643	False
14.696	0.1	0.795	15.491	0	UA_with_intermediate	practice	ward_and_allport	82	0.0	0.795	to_board	poldrack-single-stim	s643	False
15.495	0.1	0.52	16.015	0	UA_with_intermediate	practice	ward_and_allport	71	0.0	0.52	to_hand	poldrack-single-stim	s643	False
16.016	0.1	0.572	16.588	0	UA_with_intermediate	practice	ward_and_allport	89	0.0	0.572	to_board	poldrack-single-stim	s643	False
16.59	0.1	0.508	17.098	0	UA_with_intermediate	practice	ward_and_allport	82	0.0	0.508	to_hand	poldrack-single-stim	s643	False
17.099	0.1	0.854	17.953	0	UA_with_intermediate	practice	ward_and_allport	89	0.0	0.854	to_board	poldrack-single-stim	s643	False
17.959	1.0	2.5	17.958	0	UA_with_intermediate	practice	ward_and_allport	-1	0.0	n/a	feedback	poldrack-single-stim	s643	False
20.461	5.854	5.854	26.315	1	UA_with_intermediate	practice	ward_and_allport	71	1.0	5.854	to_hand	poldrack-single-stim	s643	False
26.316	0.1	0.814	27.13	0	UA_with_intermediate	practice	ward_and_allport	71	1.0	0.814	to_board	poldrack-single-stim	s643	False
27.132	0.1	0.761	27.893	0	UA_with_intermediate	practice	ward_and_allport	89	1.0	0.761	to_hand	poldrack-single-stim	s643	False
27.894	0.1	1.663	29.557	0	UA_with_intermediate	practice	ward_and_allport	82	1.0	1.663	to_board	poldrack-single-stim	s643	False
29.559	0.1	1.079	30.638	0	UA_with_intermediate	practice	ward_and_allport	71	1.0	1.079	to_hand	poldrack-single-stim	s643	False
30.639	0.1	0.557	31.196	0	UA_with_intermediate	practice	ward_and_allport	89	1.0	0.557	to_board	poldrack-single-stim	s643	False
31.198	0.1	0.615	31.813	0	UA_with_intermediate	practice	ward_and_allport	82	1.0	0.615	to_hand	poldrack-single-stim	s643	False
31.814	0.1	1.434	33.248	0	UA_with_intermediate	practice	ward_and_allport	89	1.0	1.434	to_board	poldrack-single-stim	s643	False
33.253	1.0	2.1	33.252	0	UA_with_intermediate	practice	ward_and_allport	-1	1.0	n/a	feedback	poldrack-single-stim	s643	False
35.356	4.266	4.266	39.622	1	UA_without_intermediate	practice	ward_and_allport	82	2.0	4.266	to_hand	poldrack-single-stim	s643	False
39.624	0.1	0.625	40.249	0	UA_without_intermediate	practice	ward_and_allport	89	2.0	0.625	to_board	poldrack-single-stim	s643	False
40.25	0.1	0.555	40.805	0	UA_without_intermediate	practice	ward_and_allport	71	2.0	0.555	to_hand	poldrack-single-stim	s643	False
40.807	0.1	0.536	41.343	0	UA_without_intermediate	practice	ward_and_allport	89	2.0	0.536	to_board	poldrack-single-stim	s643	False
41.344	0.1	1.146	42.49	0	UA_without_intermediate	practice	ward_and_allport	71	2.0	1.146	to_hand	poldrack-single-stim	s643	False
42.492	0.1	0.426	42.918	0	UA_without_intermediate	practice	ward_and_allport	89	2.0	0.426	to_board	poldrack-single-stim	s643	False
42.925	1.0	2.2	42.924	0	UA_without_intermediate	practice	ward_and_allport	-1	2.0	n/a	feedback	poldrack-single-stim	s643	False
45.127	5.439	5.439	50.566	1	UA_without_intermediate	practice	ward_and_allport	71	3.0	5.439	to_hand	poldrack-single-stim	s643	False
50.567	0.1	0.487	51.054	0	UA_without_intermediate	practice	ward_and_allport	89	3.0	0.487	to_board	poldrack-single-stim	s643	False
51.056	0.1	0.634	51.69	0	UA_without_intermediate	practice	ward_and_allport	82	3.0	0.634	to_hand	poldrack-single-stim	s643	False
51.691	0.1	1.529	53.22	0	UA_without_intermediate	practice	ward_and_allport	89	3.0	1.529	to_board	poldrack-single-stim	s643	False
53.222	0.1	0.985	54.207	0	UA_without_intermediate	practice	ward_and_allport	71	3.0	0.985	to_hand	poldrack-single-stim	s643	False
54.209	0.1	1.303	55.512	0	UA_without_intermediate	practice	ward_and_allport	89	3.0	1.303	to_board	poldrack-single-stim	s643	False
55.519	1.0	2.0	55.518	0	UA_without_intermediate	practice	ward_and_allport	-1	3.0	n/a	feedback	poldrack-single-stim	s643	False
59.532	7.558	7.558	67.09	1	PA_with_intermediate	test	ward_and_allport	71	0.0	7.558	to_hand	poldrack-single-stim	s643	False
67.091	0.1	0.375	67.466	0	PA_with_intermediate	test	ward_and_allport	82	0.0	0.375	to_board	poldrack-single-stim	s643	False
67.468	0.1	0.433	67.901	0	PA_with_intermediate	test	ward_and_allport	71	0.0	0.433	to_hand	poldrack-single-stim	s643	False
67.903	0.1	0.572	68.475	0	PA_with_intermediate	test	ward_and_allport	89	0.0	0.572	to_board	poldrack-single-stim	s643	False
68.477	0.1	0.506	68.983	0	PA_with_intermediate	test	ward_and_allport	82	0.0	0.506	to_hand	poldrack-single-stim	s643	False
68.984	0.1	0.43	69.414	0	PA_with_intermediate	test	ward_and_allport	89	0.0	0.43	to_board	poldrack-single-stim	s643	False
69.418	1.0	2.408	69.417	0	PA_with_intermediate	test	ward_and_allport	-1	0.0	n/a	feedback	poldrack-single-stim	s643	False
71.829	7.015	7.015	78.844	1	PA_without_intermediate	test	ward_and_allport	82	1.0	7.015	to_hand	poldrack-single-stim	s643	False
78.845	0.1	1.202	80.047	0	PA_without_intermediate	test	ward_and_allport	89	1.0	1.202	to_board	poldrack-single-stim	s643	False
80.05	0.1	1.603	81.653	0	PA_without_intermediate	test	ward_and_allport	82	1.0	1.603	to_hand	poldrack-single-stim	s643	False
81.654	0.1	0.86	82.514	0	PA_without_intermediate	test	ward_and_allport	71	1.0	0.86	to_board	poldrack-single-stim	s643	False
82.516	0.1	0.772	83.288	0	PA_without_intermediate	test	ward_and_allport	82	1.0	0.772	to_hand	poldrack-single-stim	s643	False
83.289	0.1	0.614	83.903	0	PA_without_intermediate	test	ward_and_allport	89	1.0	0.614	to_board	poldrack-single-stim	s643	False
83.911	1.0	2.68	83.91	0	PA_without_intermediate	test	ward_and_allport	-1	1.0	n/a	feedback	poldrack-single-stim	s643	False
86.594	6.21	6.21	92.804	1	PA_with_intermediate	test	ward_and_allport	89	2.0	6.21	to_hand	poldrack-single-stim	s643	False
92.805	0.1	0.401	93.206	0	PA_with_intermediate	test	ward_and_allport	71	2.0	0.401	to_board	poldrack-single-stim	s643	False
93.208	0.1	2.002	95.21	0	PA_with_intermediate	test	ward_and_allport	71	2.0	2.002	to_hand	poldrack-single-stim	s643	False
95.212	0.1	0.791	96.003	0	PA_with_intermediate	test	ward_and_allport	71	2.0	0.791	to_board	poldrack-single-stim	s643	False
96.006	0.1	0.863	96.869	0	PA_with_intermediate	test	ward_and_allport	89	2.0	0.863	to_hand	poldrack-single-stim	s643	False
96.869	0.1	1.054	97.923	0	PA_with_intermediate	test	ward_and_allport	82	2.0	1.054	to_board	poldrack-single-stim	s643	False
97.925	0.1	0.945	98.87	0	PA_with_intermediate	test	ward_and_allport	71	2.0	0.945	to_hand	poldrack-single-stim	s643	False
98.872	0.1	0.508	99.38	0	PA_with_intermediate	test	ward_and_allport	82	2.0	0.508	to_board	poldrack-single-stim	s643	False
99.388	1.0	4.72	99.387	0	PA_with_intermediate	test	ward_and_allport	-1	2.0	n/a	feedback	poldrack-single-stim	s643	False
104.112	4.015	4.015	108.127	1	PA_without_intermediate	test	ward_and_allport	71	3.0	4.015	to_hand	poldrack-single-stim	s643	False
108.128	0.1	0.52	108.648	0	PA_without_intermediate	test	ward_and_allport	89	3.0	0.52	to_board	poldrack-single-stim	s643	False
108.651	0.1	2.367	111.018	0	PA_without_intermediate	test	ward_and_allport	71	3.0	2.367	to_hand	poldrack-single-stim	s643	False
111.02	0.1	0.35	111.37	0	PA_without_intermediate	test	ward_and_allport	89	3.0	0.35	to_board	poldrack-single-stim	s643	False
111.373	0.1	0.71	112.083	0	PA_without_intermediate	test	ward_and_allport	71	3.0	0.71	to_hand	poldrack-single-stim	s643	False
112.085	0.1	0.398	112.483	0	PA_without_intermediate	test	ward_and_allport	82	3.0	0.398	to_board	poldrack-single-stim	s643	False
112.489	1.0	3.224	112.488	0	PA_without_intermediate	test	ward_and_allport	-1	3.0	n/a	feedback	poldrack-single-stim	s643	False
115.717	6.911	6.911	122.628	1	PA_without_intermediate	test	ward_and_allport	71	4.0	6.911	to_hand	poldrack-single-stim	s643	False
122.63	0.1	0.273	122.903	0	PA_without_intermediate	test	ward_and_allport	89	4.0	0.273	to_board	poldrack-single-stim	s643	False
122.907	0.1	0.978	123.885	0	PA_without_intermediate	test	ward_and_allport	71	4.0	0.978	to_hand	poldrack-single-stim	s643	False
123.886	0.1	0.446	124.332	0	PA_without_intermediate	test	ward_and_allport	82	4.0	0.446	to_board	poldrack-single-stim	s643	False
124.336	0.1	0.762	125.098	0	PA_without_intermediate	test	ward_and_allport	71	4.0	0.762	to_hand	poldrack-single-stim	s643	False
125.1	0.1	0.267	125.367	0	PA_without_intermediate	test	ward_and_allport	89	4.0	0.267	to_board	poldrack-single-stim	s643	False
125.375	1.0	2.272	125.374	0	PA_without_intermediate	test	ward_and_allport	-1	4.0	n/a	feedback	poldrack-single-stim	s643	False
127.65	6.717	6.717	134.367	1	PA_with_intermediate	test	ward_and_allport	71	5.0	6.717	to_hand	poldrack-single-stim	s643	False
134.368	0.1	0.257	134.625	0	PA_with_intermediate	test	ward_and_allport	89	5.0	0.257	to_board	poldrack-single-stim	s643	False
134.629	0.1	0.6	135.229	0	PA_with_intermediate	test	ward_and_allport	71	5.0	0.6	to_hand	poldrack-single-stim	s643	False
135.23	0.1	0.351	135.581	0	PA_with_intermediate	test	ward_and_allport	82	5.0	0.351	to_board	poldrack-single-stim	s643	False
135.584	0.1	1.212	136.796	0	PA_with_intermediate	test	ward_and_allport	89	5.0	1.212	to_hand	poldrack-single-stim	s643	False
136.797	0.1	0.303	137.1	0	PA_with_intermediate	test	ward_and_allport	71	5.0	0.303	to_board	poldrack-single-stim	s643	False
137.107	1.0	3.632	137.106	0	PA_with_intermediate	test	ward_and_allport	-1	5.0	n/a	feedback	poldrack-single-stim	s643	False
140.744	15.329	15.329	156.073	1	PA_without_intermediate	test	ward_and_allport	89	6.0	15.329	to_hand	poldrack-single-stim	s643	False
156.075	0.1	0.361	156.436	0	PA_without_intermediate	test	ward_and_allport	82	6.0	0.361	to_board	poldrack-single-stim	s643	False
156.439	0.1	1.578	158.017	0	PA_without_intermediate	test	ward_and_allport	89	6.0	1.578	to_hand	poldrack-single-stim	s643	False
158.018	0.1	0.382	158.4	0	PA_without_intermediate	test	ward_and_allport	71	6.0	0.382	to_board	poldrack-single-stim	s643	False
158.403	0.1	0.916	159.319	0	PA_without_intermediate	test	ward_and_allport	89	6.0	0.916	to_hand	poldrack-single-stim	s643	False
159.32	0.1	0.347	159.667	0	PA_without_intermediate	test	ward_and_allport	82	6.0	0.347	to_board	poldrack-single-stim	s643	False
159.676	1.0	2.408	159.675	0	PA_without_intermediate	test	ward_and_allport	-1	6.0	n/a	feedback	poldrack-single-stim	s643	False
162.088	5.206	5.206	167.294	1	PA_without_intermediate	test	ward_and_allport	89	7.0	5.206	to_hand	poldrack-single-stim	s643	False
167.295	0.1	0.303	167.598	0	PA_without_intermediate	test	ward_and_allport	82	7.0	0.303	to_board	poldrack-single-stim	s643	False
167.602	0.1	0.907	168.509	0	PA_without_intermediate	test	ward_and_allport	89	7.0	0.907	to_hand	poldrack-single-stim	s643	False
168.511	0.1	0.396	168.907	0	PA_without_intermediate	test	ward_and_allport	82	7.0	0.396	to_board	poldrack-single-stim	s643	False
168.911	0.1	0.659	169.57	0	PA_without_intermediate	test	ward_and_allport	89	7.0	0.659	to_hand	poldrack-single-stim	s643	False
169.57	0.1	0.272	169.842	0	PA_without_intermediate	test	ward_and_allport	71	7.0	0.272	to_board	poldrack-single-stim	s643	False
169.85	1.0	2.0	169.849	0	PA_without_intermediate	test	ward_and_allport	-1	7.0	n/a	feedback	poldrack-single-stim	s643	False
171.853	8.285	8.285	180.138	1	PA_with_intermediate	test	ward_and_allport	82	8.0	8.285	to_hand	poldrack-single-stim	s643	False
180.14	0.1	0.258	180.398	0	PA_with_intermediate	test	ward_and_allport	89	8.0	0.258	to_board	poldrack-single-stim	s643	False
180.401	0.1	1.619	182.02	0	PA_with_intermediate	test	ward_and_allport	89	8.0	1.619	to_hand	poldrack-single-stim	s643	False
182.022	0.1	1.281	183.303	0	PA_with_intermediate	test	ward_and_allport	71	8.0	1.281	to_board	poldrack-single-stim	s643	False
183.307	0.1	2.989	186.296	0	PA_with_intermediate	test	ward_and_allport	82	8.0	2.989	to_hand	poldrack-single-stim	s643	False
186.297	0.1	0.444	186.741	0	PA_with_intermediate	test	ward_and_allport	89	8.0	0.444	to_board	poldrack-single-stim	s643	False
186.745	0.1	0.587	187.332	0	PA_with_intermediate	test	ward_and_allport	71	8.0	0.587	to_hand	poldrack-single-stim	s643	False
187.333	0.1	0.378	187.711	0	PA_with_intermediate	test	ward_and_allport	82	8.0	0.378	to_board	poldrack-single-stim	s643	False
187.722	1.0	2.0	187.721	0	PA_with_intermediate	test	ward_and_allport	-1	8.0	n/a	feedback	poldrack-single-stim	s643	False
189.727	6.149	6.149	195.876	1	PA_with_intermediate	test	ward_and_allport	89	9.0	6.149	to_hand	poldrack-single-stim	s643	False
195.877	0.1	0.313	196.19	0	PA_with_intermediate	test	ward_and_allport	82	9.0	0.313	to_board	poldrack-single-stim	s643	False
196.193	0.1	0.81	197.003	0	PA_with_intermediate	test	ward_and_allport	89	9.0	0.81	to_hand	poldrack-single-stim	s643	False
197.005	0.1	0.352	197.357	0	PA_with_intermediate	test	ward_and_allport	71	9.0	0.352	to_board	poldrack-single-stim	s643	False
197.361	0.1	0.848	198.209	0	PA_with_intermediate	test	ward_and_allport	82	9.0	0.848	to_hand	poldrack-single-stim	s643	False
198.21	0.1	0.234	198.444	0	PA_with_intermediate	test	ward_and_allport	89	9.0	0.234	to_board	poldrack-single-stim	s643	False
198.45	1.0	2.0	198.449	0	PA_with_intermediate	test	ward_and_allport	-1	9.0	n/a	feedback	poldrack-single-stim	s643	False
200.456	10.045	10.045	210.501	1	PA_with_intermediate	test	ward_and_allport	89	10.0	10.045	to_hand	poldrack-single-stim	s643	False
210.503	0.1	0.359	210.862	0	PA_with_intermediate	test	ward_and_allport	82	10.0	0.359	to_board	poldrack-single-stim	s643	False
210.866	0.1	1.1	211.966	0	PA_with_intermediate	test	ward_and_allport	89	10.0	1.1	to_hand	poldrack-single-stim	s643	False
211.967	0.1	0.305	212.272	0	PA_with_intermediate	test	ward_and_allport	71	10.0	0.305	to_board	poldrack-single-stim	s643	False
212.276	0.1	0.742	213.018	0	PA_with_intermediate	test	ward_and_allport	82	10.0	0.742	to_hand	poldrack-single-stim	s643	False
213.02	0.1	0.252	213.272	0	PA_with_intermediate	test	ward_and_allport	71	10.0	0.252	to_board	poldrack-single-stim	s643	False
213.279	1.0	2.408	213.278	0	PA_with_intermediate	test	ward_and_allport	-1	10.0	n/a	feedback	poldrack-single-stim	s643	False
215.691	9.153	9.153	224.844	1	PA_without_intermediate	test	ward_and_allport	89	11.0	9.153	to_hand	poldrack-single-stim	s643	False
224.845	0.1	0.247	225.092	0	PA_without_intermediate	test	ward_and_allport	71	11.0	0.247	to_board	poldrack-single-stim	s643	False
225.097	0.1	0.777	225.874	0	PA_without_intermediate	test	ward_and_allport	89	11.0	0.777	to_hand	poldrack-single-stim	s643	False
225.876	0.1	0.294	226.17	0	PA_without_intermediate	test	ward_and_allport	82	11.0	0.294	to_board	poldrack-single-stim	s643	False
226.174	0.1	0.676	226.85	0	PA_without_intermediate	test	ward_and_allport	89	11.0	0.676	to_hand	poldrack-single-stim	s643	False
226.852	0.1	0.298	227.15	0	PA_without_intermediate	test	ward_and_allport	71	11.0	0.298	to_board	poldrack-single-stim	s643	False
227.16	1.0	2.816	227.159	0	PA_without_intermediate	test	ward_and_allport	-1	11.0	n/a	feedback	poldrack-single-stim	s643	False
229.981	3.711	3.711	233.692	1	PA_with_intermediate	test	ward_and_allport	82	12.0	3.711	to_hand	poldrack-single-stim	s643	False
233.692	0.1	0.254	233.946	0	PA_with_intermediate	test	ward_and_allport	71	12.0	0.254	to_board	poldrack-single-stim	s643	False
233.951	0.1	0.636	234.587	0	PA_with_intermediate	test	ward_and_allport	82	12.0	0.636	to_hand	poldrack-single-stim	s643	False
234.588	0.1	0.243	234.831	0	PA_with_intermediate	test	ward_and_allport	89	12.0	0.243	to_board	poldrack-single-stim	s643	False
234.837	0.1	1.47	236.307	0	PA_with_intermediate	test	ward_and_allport	71	12.0	1.47	to_hand	poldrack-single-stim	s643	False
236.309	0.1	0.262	236.571	0	PA_with_intermediate	test	ward_and_allport	82	12.0	0.262	to_board	poldrack-single-stim	s643	False
236.58	1.0	4.176	236.579	0	PA_with_intermediate	test	ward_and_allport	-1	12.0	n/a	feedback	poldrack-single-stim	s643	False
240.761	15.271	15.271	256.032	1	PA_with_intermediate	test	ward_and_allport	82	13.0	15.271	to_hand	poldrack-single-stim	s643	False
256.034	0.1	0.277	256.311	0	PA_with_intermediate	test	ward_and_allport	71	13.0	0.277	to_board	poldrack-single-stim	s643	False
256.316	0.1	1.303	257.619	0	PA_with_intermediate	test	ward_and_allport	82	13.0	1.303	to_hand	poldrack-single-stim	s643	False
257.621	0.1	0.288	257.909	0	PA_with_intermediate	test	ward_and_allport	89	13.0	0.288	to_board	poldrack-single-stim	s643	False
257.913	0.1	0.733	258.646	0	PA_with_intermediate	test	ward_and_allport	71	13.0	0.733	to_hand	poldrack-single-stim	s643	False
258.648	0.1	0.266	258.914	0	PA_with_intermediate	test	ward_and_allport	89	13.0	0.266	to_board	poldrack-single-stim	s643	False
258.924	1.0	3.36	258.923	0	PA_with_intermediate	test	ward_and_allport	-1	13.0	n/a	feedback	poldrack-single-stim	s643	False
262.292	3.084	3.084	265.376	1	PA_with_intermediate	test	ward_and_allport	71	14.0	3.084	to_hand	poldrack-single-stim	s643	False
265.377	0.1	0.204	265.581	0	PA_with_intermediate	test	ward_and_allport	89	14.0	0.204	to_board	poldrack-single-stim	s643	False
265.586	0.1	0.528	266.114	0	PA_with_intermediate	test	ward_and_allport	71	14.0	0.528	to_hand	poldrack-single-stim	s643	False
266.115	0.1	0.557	266.672	0	PA_with_intermediate	test	ward_and_allport	82	14.0	0.557	to_board	poldrack-single-stim	s643	False
266.676	0.1	0.692	267.368	0	PA_with_intermediate	test	ward_and_allport	89	14.0	0.692	to_hand	poldrack-single-stim	s643	False
267.369	0.1	0.429	267.798	0	PA_with_intermediate	test	ward_and_allport	82	14.0	0.429	to_board	poldrack-single-stim	s643	False
267.806	1.0	2.0	267.805	0	PA_with_intermediate	test	ward_and_allport	-1	14.0	n/a	feedback	poldrack-single-stim	s643	False
274.819	4.033	4.033	278.852	1	PA_without_intermediate	test	ward_and_allport	71	15.0	4.033	to_hand	poldrack-single-stim	s643	False
278.854	0.1	0.737	279.591	0	PA_without_intermediate	test	ward_and_allport	82	15.0	0.737	to_board	poldrack-single-stim	s643	False
279.596	0.1	0.613	280.209	0	PA_without_intermediate	test	ward_and_allport	71	15.0	0.613	to_hand	poldrack-single-stim	s643	False
280.21	0.1	0.882	281.092	0	PA_without_intermediate	test	ward_and_allport	82	15.0	0.882	to_board	poldrack-single-stim	s643	False
281.097	0.1	0.551	281.648	0	PA_without_intermediate	test	ward_and_allport	71	15.0	0.551	to_hand	poldrack-single-stim	s643	False
281.65	0.1	0.492	282.142	0	PA_without_intermediate	test	ward_and_allport	89	15.0	0.492	to_board	poldrack-single-stim	s643	False
282.151	1.0	2.408	282.15	0	PA_without_intermediate	test	ward_and_allport	-1	15.0	n/a	feedback	poldrack-single-stim	s643	False
284.564	9.486	9.486	294.05	1	PA_with_intermediate	test	ward_and_allport	89	16.0	9.486	to_hand	poldrack-single-stim	s643	False
294.052	0.1	0.355	294.407	0	PA_with_intermediate	test	ward_and_allport	82	16.0	0.355	to_board	poldrack-single-stim	s643	False
294.412	0.1	0.782	295.194	0	PA_with_intermediate	test	ward_and_allport	89	16.0	0.782	to_hand	poldrack-single-stim	s643	False
295.196	0.1	0.314	295.51	0	PA_with_intermediate	test	ward_and_allport	71	16.0	0.314	to_board	poldrack-single-stim	s643	False
295.515	0.1	0.669	296.184	0	PA_with_intermediate	test	ward_and_allport	82	16.0	0.669	to_hand	poldrack-single-stim	s643	False
296.185	0.1	0.298	296.483	0	PA_with_intermediate	test	ward_and_allport	71	16.0	0.298	to_board	poldrack-single-stim	s643	False
296.492	1.0	2.816	296.491	0	PA_with_intermediate	test	ward_and_allport	-1	16.0	n/a	feedback	poldrack-single-stim	s643	False
299.314	4.793	4.793	304.107	1	PA_without_intermediate	test	ward_and_allport	71	17.0	4.793	to_hand	poldrack-single-stim	s643	False
304.107	0.1	0.441	304.548	0	PA_without_intermediate	test	ward_and_allport	82	17.0	0.441	to_board	poldrack-single-stim	s643	False
304.553	0.1	0.439	304.992	0	PA_without_intermediate	test	ward_and_allport	71	17.0	0.439	to_hand	poldrack-single-stim	s643	False
304.993	0.1	0.392	305.385	0	PA_without_intermediate	test	ward_and_allport	89	17.0	0.392	to_board	poldrack-single-stim	s643	False
305.39	0.1	0.524	305.914	0	PA_without_intermediate	test	ward_and_allport	71	17.0	0.524	to_hand	poldrack-single-stim	s643	False
305.916	0.1	0.421	306.337	0	PA_without_intermediate	test	ward_and_allport	82	17.0	0.421	to_board	poldrack-single-stim	s643	False
306.342	1.0	3.088	306.341	0	PA_without_intermediate	test	ward_and_allport	-1	17.0	n/a	feedback	poldrack-single-stim	s643	False
309.437	3.956	3.956	313.393	1	PA_without_intermediate	test	ward_and_allport	71	18.0	3.956	to_hand	poldrack-single-stim	s643	False
313.395	0.1	0.272	313.667	0	PA_without_intermediate	test	ward_and_allport	89	18.0	0.272	to_board	poldrack-single-stim	s643	False
313.672	0.1	0.434	314.106	0	PA_without_intermediate	test	ward_and_allport	71	18.0	0.434	to_hand	poldrack-single-stim	s643	False
314.108	0.1	0.247	314.355	0	PA_without_intermediate	test	ward_and_allport	89	18.0	0.247	to_board	poldrack-single-stim	s643	False
314.36	0.1	0.629	314.989	0	PA_without_intermediate	test	ward_and_allport	71	18.0	0.629	to_hand	poldrack-single-stim	s643	False
314.991	0.1	0.271	315.262	0	PA_without_intermediate	test	ward_and_allport	82	18.0	0.271	to_board	poldrack-single-stim	s643	False
315.271	1.0	2.136	315.27	0	PA_without_intermediate	test	ward_and_allport	-1	18.0	n/a	feedback	poldrack-single-stim	s643	False
317.414	6.337	6.337	323.751	1	PA_without_intermediate	test	ward_and_allport	71	19.0	6.337	to_hand	poldrack-single-stim	s643	False
323.752	0.1	0.276	324.028	0	PA_without_intermediate	test	ward_and_allport	82	19.0	0.276	to_board	poldrack-single-stim	s643	False
324.034	0.1	0.389	324.423	0	PA_without_intermediate	test	ward_and_allport	71	19.0	0.389	to_hand	poldrack-single-stim	s643	False
324.423	0.1	0.254	324.677	0	PA_without_intermediate	test	ward_and_allport	82	19.0	0.254	to_board	poldrack-single-stim	s643	False
324.683	0.1	0.371	325.054	0	PA_without_intermediate	test	ward_and_allport	71	19.0	0.371	to_hand	poldrack-single-stim	s643	False
325.054	0.1	0.217	325.271	0	PA_without_intermediate	test	ward_and_allport	89	19.0	0.217	to_board	poldrack-single-stim	s643	False
325.282	1.0	7.168	325.281	0	PA_without_intermediate	test	ward_and_allport	-1	19.0	n/a	feedback	poldrack-single-stim	s643	False
332.457	14.661	14.661	347.118	1	PA_without_intermediate	test	ward_and_allport	82	20.0	14.661	to_hand	poldrack-single-stim	s643	False
347.12	0.1	0.399	347.519	0	PA_without_intermediate	test	ward_and_allport	71	20.0	0.399	to_board	poldrack-single-stim	s643	False
347.525	0.1	0.726	348.251	0	PA_without_intermediate	test	ward_and_allport	82	20.0	0.726	to_hand	poldrack-single-stim	s643	False
348.253	0.1	3.743	351.996	0	PA_without_intermediate	test	ward_and_allport	82	20.0	3.743	to_board	poldrack-single-stim	s643	False
352.001	0.1	0.759	352.76	0	PA_without_intermediate	test	ward_and_allport	71	20.0	0.759	to_hand	poldrack-single-stim	s643	False
352.762	0.1	0.43	353.192	0	PA_without_intermediate	test	ward_and_allport	89	20.0	0.43	to_board	poldrack-single-stim	s643	False
353.198	0.1	0.424	353.622	0	PA_without_intermediate	test	ward_and_allport	82	20.0	0.424	to_hand	poldrack-single-stim	s643	False
353.623	0.1	0.355	353.978	0	PA_without_intermediate	test	ward_and_allport	71	20.0	0.355	to_board	poldrack-single-stim	s643	False
353.984	0.1	1.405	355.389	0	PA_without_intermediate	test	ward_and_allport	82	20.0	1.405	to_hand	poldrack-single-stim	s643	False
355.391	0.1	0.327	355.718	0	PA_without_intermediate	test	ward_and_allport	89	20.0	0.327	to_board	poldrack-single-stim	s643	False
355.727	1.0	2.816	355.726	0	PA_without_intermediate	test	ward_and_allport	-1	20.0	n/a	feedback	poldrack-single-stim	s643	False
358.55	5.167	5.167	363.717	1	PA_with_intermediate	test	ward_and_allport	71	21.0	5.167	to_hand	poldrack-single-stim	s643	False
363.718	0.1	0.317	364.035	0	PA_with_intermediate	test	ward_and_allport	82	21.0	0.317	to_board	poldrack-single-stim	s643	False
364.041	0.1	0.356	364.397	0	PA_with_intermediate	test	ward_and_allport	71	21.0	0.356	to_hand	poldrack-single-stim	s643	False
364.398	0.1	0.301	364.699	0	PA_with_intermediate	test	ward_and_allport	89	21.0	0.301	to_board	poldrack-single-stim	s643	False
364.706	0.1	0.423	365.129	0	PA_with_intermediate	test	ward_and_allport	82	21.0	0.423	to_hand	poldrack-single-stim	s643	False
365.13	0.1	0.264	365.394	0	PA_with_intermediate	test	ward_and_allport	71	21.0	0.264	to_board	poldrack-single-stim	s643	False
365.405	1.0	2.952	365.404	0	PA_with_intermediate	test	ward_and_allport	-1	21.0	n/a	feedback	poldrack-single-stim	s643	False
368.364	3.899	3.899	372.263	1	PA_with_intermediate	test	ward_and_allport	89	22.0	3.899	to_hand	poldrack-single-stim	s643	False
372.265	0.1	0.253	372.518	0	PA_with_intermediate	test	ward_and_allport	71	22.0	0.253	to_board	poldrack-single-stim	s643	False
372.525	0.1	0.393	372.918	0	PA_with_intermediate	test	ward_and_allport	89	22.0	0.393	to_hand	poldrack-single-stim	s643	False
372.92	0.1	0.294	373.214	0	PA_with_intermediate	test	ward_and_allport	82	22.0	0.294	to_board	poldrack-single-stim	s643	False
373.221	0.1	0.407	373.628	0	PA_with_intermediate	test	ward_and_allport	71	22.0	0.407	to_hand	poldrack-single-stim	s643	False
373.63	0.1	0.252	373.882	0	PA_with_intermediate	test	ward_and_allport	89	22.0	0.252	to_board	poldrack-single-stim	s643	False
373.894	1.0	2.136	373.893	0	PA_with_intermediate	test	ward_and_allport	-1	22.0	n/a	feedback	poldrack-single-stim	s643	False
376.038	12.862	12.862	388.9	1	PA_without_intermediate	test	ward_and_allport	89	23.0	12.862	to_hand	poldrack-single-stim	s643	False
388.902	0.1	1.407	390.309	0	PA_without_intermediate	test	ward_and_allport	71	23.0	1.407	to_board	poldrack-single-stim	s643	False
390.316	0.1	0.797	391.113	0	PA_without_intermediate	test	ward_and_allport	89	23.0	0.797	to_hand	poldrack-single-stim	s643	False
391.115	0.1	1.276	392.391	0	PA_without_intermediate	test	ward_and_allport	82	23.0	1.276	to_board	poldrack-single-stim	s643	False
392.397	0.1	0.773	393.17	0	PA_without_intermediate	test	ward_and_allport	89	23.0	0.773	to_hand	poldrack-single-stim	s643	False
393.172	0.1	0.59	393.762	0	PA_without_intermediate	test	ward_and_allport	71	23.0	0.59	to_board	poldrack-single-stim	s643	False
393.77	1.0	2.68	393.769	0	PA_without_intermediate	test	ward_and_allport	-1	23.0	n/a	feedback	poldrack-single-stim	s643	False
396.456	5.042	5.042	401.498	1	PA_without_intermediate	test	ward_and_allport	71	24.0	5.042	to_hand	poldrack-single-stim	s643	False
401.499	0.1	0.255	401.754	0	PA_without_intermediate	test	ward_and_allport	82	24.0	0.255	to_board	poldrack-single-stim	s643	False
401.763	0.1	0.728	402.491	0	PA_without_intermediate	test	ward_and_allport	71	24.0	0.728	to_hand	poldrack-single-stim	s643	False
402.492	0.1	0.224	402.716	0	PA_without_intermediate	test	ward_and_allport	89	24.0	0.224	to_board	poldrack-single-stim	s643	False
402.723	0.1	0.635	403.358	0	PA_without_intermediate	test	ward_and_allport	71	24.0	0.635	to_hand	poldrack-single-stim	s643	False
403.359	0.1	0.279	403.638	0	PA_without_intermediate	test	ward_and_allport	82	24.0	0.279	to_board	poldrack-single-stim	s643	False
403.648	1.0	3.088	403.647	0	PA_without_intermediate	test	ward_and_allport	-1	24.0	n/a	feedback	poldrack-single-stim	s643	False
406.743	6.296	6.296	413.039	1	PA_with_intermediate	test	ward_and_allport	82	25.0	6.296	to_hand	poldrack-single-stim	s643	False
413.04	0.1	0.46	413.5	0	PA_with_intermediate	test	ward_and_allport	89	25.0	0.46	to_board	poldrack-single-stim	s643	False
413.506	0.1	0.916	414.422	0	PA_with_intermediate	test	ward_and_allport	82	25.0	0.916	to_hand	poldrack-single-stim	s643	False
414.423	0.1	0.405	414.828	0	PA_with_intermediate	test	ward_and_allport	71	25.0	0.405	to_board	poldrack-single-stim	s643	False
414.835	0.1	0.516	415.351	0	PA_with_intermediate	test	ward_and_allport	89	25.0	0.516	to_hand	poldrack-single-stim	s643	False
415.353	0.1	0.237	415.59	0	PA_with_intermediate	test	ward_and_allport	71	25.0	0.237	to_board	poldrack-single-stim	s643	False
415.601	1.0	2.0	415.6	0	PA_with_intermediate	test	ward_and_allport	-1	25.0	n/a	feedback	poldrack-single-stim	s643	False
417.609	9.726	9.726	427.335	1	PA_without_intermediate	test	ward_and_allport	82	26.0	9.726	to_hand	poldrack-single-stim	s643	False
427.337	0.1	0.268	427.605	0	PA_without_intermediate	test	ward_and_allport	71	26.0	0.268	to_board	poldrack-single-stim	s643	False
427.612	0.1	0.686	428.298	0	PA_without_intermediate	test	ward_and_allport	82	26.0	0.686	to_hand	poldrack-single-stim	s643	False
428.3	0.1	0.31	428.61	0	PA_without_intermediate	test	ward_and_allport	71	26.0	0.31	to_board	poldrack-single-stim	s643	False
428.616	0.1	1.454	430.07	0	PA_without_intermediate	test	ward_and_allport	82	26.0	1.454	to_hand	poldrack-single-stim	s643	False
430.072	0.1	0.449	430.521	0	PA_without_intermediate	test	ward_and_allport	89	26.0	0.449	to_board	poldrack-single-stim	s643	False
430.53	1.0	2.0	430.529	0	PA_without_intermediate	test	ward_and_allport	-1	26.0	n/a	feedback	poldrack-single-stim	s643	False
432.539	8.993	8.993	441.532	1	PA_without_intermediate	test	ward_and_allport	89	27.0	8.993	to_hand	poldrack-single-stim	s643	False
441.534	0.1	0.23	441.764	0	PA_without_intermediate	test	ward_and_allport	82	27.0	0.23	to_board	poldrack-single-stim	s643	False
441.771	0.1	1.036	442.807	0	PA_without_intermediate	test	ward_and_allport	89	27.0	1.036	to_hand	poldrack-single-stim	s643	False
442.809	0.1	0.277	443.086	0	PA_without_intermediate	test	ward_and_allport	71	27.0	0.277	to_board	poldrack-single-stim	s643	False
443.093	0.1	0.641	443.734	0	PA_without_intermediate	test	ward_and_allport	89	27.0	0.641	to_hand	poldrack-single-stim	s643	False
443.736	0.1	0.423	444.159	0	PA_without_intermediate	test	ward_and_allport	82	27.0	0.423	to_board	poldrack-single-stim	s643	False
444.17	1.0	2.0	444.169	0	PA_without_intermediate	test	ward_and_allport	-1	27.0	n/a	feedback	poldrack-single-stim	s643	False
446.177	4.535	4.535	450.712	1	PA_with_intermediate	test	ward_and_allport	89	28.0	4.535	to_hand	poldrack-single-stim	s643	False
450.713	0.1	0.25	450.963	0	PA_with_intermediate	test	ward_and_allport	71	28.0	0.25	to_board	poldrack-single-stim	s643	False
450.969	0.1	0.547	451.516	0	PA_with_intermediate	test	ward_and_allport	89	28.0	0.547	to_hand	poldrack-single-stim	s643	False
451.518	0.1	0.274	451.792	0	PA_with_intermediate	test	ward_and_allport	82	28.0	0.274	to_board	poldrack-single-stim	s643	False
451.799	0.1	0.59	452.389	0	PA_with_intermediate	test	ward_and_allport	71	28.0	0.59	to_hand	poldrack-single-stim	s643	False
452.39	0.1	0.21	452.6	0	PA_with_intermediate	test	ward_and_allport	89	28.0	0.21	to_board	poldrack-single-stim	s643	False
452.611	1.0	2.544	452.61	0	PA_with_intermediate	test	ward_and_allport	-1	28.0	n/a	feedback	poldrack-single-stim	s643	False
455.164	3.264	3.264	458.428	1	PA_without_intermediate	test	ward_and_allport	89	29.0	3.264	to_hand	poldrack-single-stim	s643	False
458.43	0.1	0.239	458.669	0	PA_without_intermediate	test	ward_and_allport	71	29.0	0.239	to_board	poldrack-single-stim	s643	False
458.677	0.1	0.594	459.271	0	PA_without_intermediate	test	ward_and_allport	89	29.0	0.594	to_hand	poldrack-single-stim	s643	False
459.272	0.1	0.241	459.513	0	PA_without_intermediate	test	ward_and_allport	71	29.0	0.241	to_board	poldrack-single-stim	s643	False
459.521	0.1	0.538	460.059	0	PA_without_intermediate	test	ward_and_allport	89	29.0	0.538	to_hand	poldrack-single-stim	s643	False
460.061	0.1	0.273	460.334	0	PA_without_intermediate	test	ward_and_allport	82	29.0	0.273	to_board	poldrack-single-stim	s643	False
460.346	1.0	2.272	460.345	0	PA_without_intermediate	test	ward_and_allport	-1	29.0	n/a	feedback	poldrack-single-stim	s643	False
467.631	11.628	11.628	479.259	1	PA_with_intermediate	test	ward_and_allport	82	30.0	11.628	to_hand	poldrack-single-stim	s643	False
479.261	0.1	0.349	479.61	0	PA_with_intermediate	test	ward_and_allport	89	30.0	0.349	to_board	poldrack-single-stim	s643	False
479.618	0.1	0.821	480.439	0	PA_with_intermediate	test	ward_and_allport	82	30.0	0.821	to_hand	poldrack-single-stim	s643	False
480.441	0.1	0.301	480.742	0	PA_with_intermediate	test	ward_and_allport	71	30.0	0.301	to_board	poldrack-single-stim	s643	False
480.75	0.1	0.491	481.241	0	PA_with_intermediate	test	ward_and_allport	89	30.0	0.491	to_hand	poldrack-single-stim	s643	False
481.242	0.1	0.282	481.524	0	PA_with_intermediate	test	ward_and_allport	71	30.0	0.282	to_board	poldrack-single-stim	s643	False
481.536	1.0	4.04	481.535	0	PA_with_intermediate	test	ward_and_allport	-1	30.0	n/a	feedback	poldrack-single-stim	s643	False
485.584	8.873	8.873	494.457	1	PA_with_intermediate	test	ward_and_allport	89	31.0	8.873	to_hand	poldrack-single-stim	s643	False
494.458	0.1	0.384	494.842	0	PA_with_intermediate	test	ward_and_allport	82	31.0	0.384	to_board	poldrack-single-stim	s643	False
494.851	0.1	0.604	495.455	0	PA_with_intermediate	test	ward_and_allport	89	31.0	0.604	to_hand	poldrack-single-stim	s643	False
495.456	0.1	0.326	495.782	0	PA_with_intermediate	test	ward_and_allport	71	31.0	0.326	to_board	poldrack-single-stim	s643	False
495.791	0.1	0.593	496.384	0	PA_with_intermediate	test	ward_and_allport	82	31.0	0.593	to_hand	poldrack-single-stim	s643	False
496.385	0.1	0.225	496.61	0	PA_with_intermediate	test	ward_and_allport	89	31.0	0.225	to_board	poldrack-single-stim	s643	False
496.624	1.0	2.272	496.623	0	PA_with_intermediate	test	ward_and_allport	-1	31.0	n/a	feedback	poldrack-single-stim	s643	False
498.906	2.181	2.181	501.087	1	PA_with_intermediate	test	ward_and_allport	71	32.0	2.181	to_hand	poldrack-single-stim	s643	False
501.089	0.1	0.268	501.357	0	PA_with_intermediate	test	ward_and_allport	89	32.0	0.268	to_board	poldrack-single-stim	s643	False
501.366	0.1	0.482	501.848	0	PA_with_intermediate	test	ward_and_allport	71	32.0	0.482	to_hand	poldrack-single-stim	s643	False
501.85	0.1	0.268	502.118	0	PA_with_intermediate	test	ward_and_allport	82	32.0	0.268	to_board	poldrack-single-stim	s643	False
502.125	0.1	0.774	502.899	0	PA_with_intermediate	test	ward_and_allport	89	32.0	0.774	to_hand	poldrack-single-stim	s643	False
502.901	0.1	0.269	503.17	0	PA_with_intermediate	test	ward_and_allport	71	32.0	0.269	to_board	poldrack-single-stim	s643	False
503.18	1.0	2.136	503.179	0	PA_with_intermediate	test	ward_and_allport	-1	32.0	n/a	feedback	poldrack-single-stim	s643	False
505.323	2.294	2.294	507.617	1	PA_with_intermediate	test	ward_and_allport	71	33.0	2.294	to_hand	poldrack-single-stim	s643	False
507.617	0.1	0.341	507.958	0	PA_with_intermediate	test	ward_and_allport	71	33.0	0.341	to_board	poldrack-single-stim	s643	False
507.965	0.1	0.741	508.706	0	PA_with_intermediate	test	ward_and_allport	71	33.0	0.741	to_hand	poldrack-single-stim	s643	False
508.707	0.1	0.346	509.053	0	PA_with_intermediate	test	ward_and_allport	82	33.0	0.346	to_board	poldrack-single-stim	s643	False
509.062	0.1	0.731	509.793	0	PA_with_intermediate	test	ward_and_allport	71	33.0	0.731	to_hand	poldrack-single-stim	s643	False
509.794	0.1	0.251	510.045	0	PA_with_intermediate	test	ward_and_allport	89	33.0	0.251	to_board	poldrack-single-stim	s643	False
510.055	0.1	1.061	511.116	0	PA_with_intermediate	test	ward_and_allport	82	33.0	1.061	to_hand	poldrack-single-stim	s643	False
511.117	0.1	0.543	511.66	0	PA_with_intermediate	test	ward_and_allport	89	33.0	0.543	to_board	poldrack-single-stim	s643	False
511.673	1.0	2.0	511.672	0	PA_with_intermediate	test	ward_and_allport	-1	33.0	n/a	feedback	poldrack-single-stim	s643	False
513.681	2.358	2.358	516.039	1	PA_with_intermediate	test	ward_and_allport	71	34.0	2.358	to_hand	poldrack-single-stim	s643	False
516.041	0.1	0.373	516.414	0	PA_with_intermediate	test	ward_and_allport	82	34.0	0.373	to_board	poldrack-single-stim	s643	False
516.421	0.1	1.151	517.572	0	PA_with_intermediate	test	ward_and_allport	71	34.0	1.151	to_hand	poldrack-single-stim	s643	False
517.574	0.1	0.342	517.916	0	PA_with_intermediate	test	ward_and_allport	89	34.0	0.342	to_board	poldrack-single-stim	s643	False
517.924	0.1	0.45	518.374	0	PA_with_intermediate	test	ward_and_allport	82	34.0	0.45	to_hand	poldrack-single-stim	s643	False
518.376	0.1	0.262	518.638	0	PA_with_intermediate	test	ward_and_allport	71	34.0	0.262	to_board	poldrack-single-stim	s643	False
518.651	1.0	2.0	518.65	0	PA_with_intermediate	test	ward_and_allport	-1	34.0	n/a	feedback	poldrack-single-stim	s643	False
520.662	9.53	9.53	530.192	1	PA_without_intermediate	test	ward_and_allport	82	35.0	9.53	to_hand	poldrack-single-stim	s643	False
530.193	0.1	0.241	530.434	0	PA_without_intermediate	test	ward_and_allport	71	35.0	0.241	to_board	poldrack-single-stim	s643	False
530.441	0.1	0.987	531.428	0	PA_without_intermediate	test	ward_and_allport	82	35.0	0.987	to_hand	poldrack-single-stim	s643	False
531.429	0.1	0.243	531.672	0	PA_without_intermediate	test	ward_and_allport	89	35.0	0.243	to_board	poldrack-single-stim	s643	False
531.681	0.1	1.069	532.75	0	PA_without_intermediate	test	ward_and_allport	82	35.0	1.069	to_hand	poldrack-single-stim	s643	False
532.751	0.1	0.227	532.978	0	PA_without_intermediate	test	ward_and_allport	71	35.0	0.227	to_board	poldrack-single-stim	s643	False
532.992	1.0	2.408	532.991	0	PA_without_intermediate	test	ward_and_allport	-1	35.0	n/a	feedback	poldrack-single-stim	s643	False
535.41	4.383	4.383	539.793	1	PA_with_intermediate	test	ward_and_allport	89	36.0	4.383	to_hand	poldrack-single-stim	s643	False
539.795	0.1	0.236	540.031	0	PA_with_intermediate	test	ward_and_allport	71	36.0	0.236	to_board	poldrack-single-stim	s643	False
540.041	0.1	0.723	540.764	0	PA_with_intermediate	test	ward_and_allport	89	36.0	0.723	to_hand	poldrack-single-stim	s643	False
540.765	0.1	0.326	541.091	0	PA_with_intermediate	test	ward_and_allport	82	36.0	0.326	to_board	poldrack-single-stim	s643	False
541.101	0.1	0.483	541.584	0	PA_with_intermediate	test	ward_and_allport	71	36.0	0.483	to_hand	poldrack-single-stim	s643	False
541.586	0.1	0.27	541.856	0	PA_with_intermediate	test	ward_and_allport	82	36.0	0.27	to_board	poldrack-single-stim	s643	False
541.87	1.0	3.768	541.869	0	PA_with_intermediate	test	ward_and_allport	-1	36.0	n/a	feedback	poldrack-single-stim	s643	False
545.646	3.327	3.327	548.973	1	PA_with_intermediate	test	ward_and_allport	82	37.0	3.327	to_hand	poldrack-single-stim	s643	False
548.974	0.1	0.244	549.218	0	PA_with_intermediate	test	ward_and_allport	71	37.0	0.244	to_board	poldrack-single-stim	s643	False
549.225	0.1	0.868	550.093	0	PA_with_intermediate	test	ward_and_allport	82	37.0	0.868	to_hand	poldrack-single-stim	s643	False
550.094	0.1	0.626	550.72	0	PA_with_intermediate	test	ward_and_allport	89	37.0	0.626	to_board	poldrack-single-stim	s643	False
550.729	0.1	0.423	551.152	0	PA_with_intermediate	test	ward_and_allport	71	37.0	0.423	to_hand	poldrack-single-stim	s643	False
551.154	0.1	0.391	551.545	0	PA_with_intermediate	test	ward_and_allport	89	37.0	0.391	to_board	poldrack-single-stim	s643	False
551.555	1.0	2.68	551.554	0	PA_with_intermediate	test	ward_and_allport	-1	37.0	n/a	feedback	poldrack-single-stim	s643	False
554.241	3.862	3.862	558.103	1	PA_without_intermediate	test	ward_and_allport	89	38.0	3.862	to_hand	poldrack-single-stim	s643	False
558.105	0.1	0.359	558.464	0	PA_without_intermediate	test	ward_and_allport	82	38.0	0.359	to_board	poldrack-single-stim	s643	False
558.472	0.1	0.86	559.332	0	PA_without_intermediate	test	ward_and_allport	89	38.0	0.86	to_hand	poldrack-single-stim	s643	False
559.334	0.1	0.415	559.749	0	PA_without_intermediate	test	ward_and_allport	82	38.0	0.415	to_board	poldrack-single-stim	s643	False
559.759	0.1	0.378	560.137	0	PA_without_intermediate	test	ward_and_allport	89	38.0	0.378	to_hand	poldrack-single-stim	s643	False
560.138	0.1	0.228	560.366	0	PA_without_intermediate	test	ward_and_allport	71	38.0	0.228	to_board	poldrack-single-stim	s643	False
560.379	1.0	3.224	560.378	0	PA_without_intermediate	test	ward_and_allport	-1	38.0	n/a	feedback	poldrack-single-stim	s643	False
563.611	2.865	2.865	566.476	1	PA_without_intermediate	test	ward_and_allport	71	39.0	2.865	to_hand	poldrack-single-stim	s643	False
566.477	0.1	0.262	566.739	0	PA_without_intermediate	test	ward_and_allport	89	39.0	0.262	to_board	poldrack-single-stim	s643	False
566.748	0.1	0.728	567.476	0	PA_without_intermediate	test	ward_and_allport	71	39.0	0.728	to_hand	poldrack-single-stim	s643	False
567.477	0.1	0.247	567.724	0	PA_without_intermediate	test	ward_and_allport	82	39.0	0.247	to_board	poldrack-single-stim	s643	False
567.732	0.1	0.892	568.624	0	PA_without_intermediate	test	ward_and_allport	71	39.0	0.892	to_hand	poldrack-single-stim	s643	False
568.625	0.1	0.222	568.847	0	PA_without_intermediate	test	ward_and_allport	89	39.0	0.222	to_board	poldrack-single-stim	s643	False
568.86	1.0	3.36	568.859	0	PA_without_intermediate	test	ward_and_allport	-1	39.0	n/a	feedback	poldrack-single-stim	s643	False
