onset	duration	correct	correct_response	cue	experiment_exp_id	flanker_location	flanker_middle_direction	flanker_type	key_press	response_time	worker_id
3.519	1.7	1.0	71.0	spatial	attention_network_task	up	right	incongruent	71	1.197	s602
6.126	1.7	1.0	71.0	spatial	attention_network_task	down	right	incongruent	71	1.03	s602
8.733863999999999	1.7	1.0	71.0	spatial	attention_network_task	down	right	congruent	71	0.684	s602
11.341728	1.7	1.0	89.0	spatial	attention_network_task	down	left	congruent	89	0.546	s602
13.950592	1.7	1.0	71.0	double	attention_network_task	up	right	incongruent	71	0.744	s602
16.558	1.7	1.0	71.0	double	attention_network_task	up	right	congruent	71	0.634	s602
19.169864	1.7	1.0	89.0	double	attention_network_task	down	left	congruent	89	0.609	s602
21.778864000000002	1.7	1.0	71.0	spatial	attention_network_task	down	right	congruent	71	0.688	s602
24.387	1.7	0.0	89.0	double	attention_network_task	up	left	congruent	71	0.786	s602
26.993592	1.7	1.0	89.0	double	attention_network_task	up	left	incongruent	89	0.674	s602
29.602455999999997	1.7	1.0	89.0	spatial	attention_network_task	up	left	congruent	89	0.547	s602
32.210864	1.7	1.0	89.0	spatial	attention_network_task	down	left	congruent	89	0.815	s602
34.822864	1.7	1.0	71.0	spatial	attention_network_task	up	right	congruent	71	0.681	s602
37.436	1.7	1.0	89.0	spatial	attention_network_task	down	left	incongruent	89	1.205	s602
40.046	1.7	1.0	89.0	double	attention_network_task	down	left	congruent	89	0.878	s602
42.653864	1.7	1.0	89.0	double	attention_network_task	down	left	congruent	89	0.87	s602
45.267	1.7	1.0	71.0	double	attention_network_task	up	right	congruent	71	0.954	s602
47.874864	1.7	1.0	71.0	double	attention_network_task	down	right	congruent	71	0.84	s602
50.489	1.7	1.0	71.0	double	attention_network_task	up	right	congruent	71	0.829	s602
53.096591999999994	1.7	1.0	89.0	spatial	attention_network_task	up	left	congruent	89	0.808	s602
55.705	1.7	1.0	71.0	spatial	attention_network_task	up	right	incongruent	71	0.736	s602
58.312184	1.7	1.0	89.0	double	attention_network_task	up	left	incongruent	89	0.915	s602
60.91932	1.7	1.0	89.0	spatial	attention_network_task	up	left	congruent	89	0.78	s602
63.528	1.7	1.0	71.0	spatial	attention_network_task	up	right	congruent	71	0.692	s602
66.136864	1.7	1.0	89.0	spatial	attention_network_task	up	left	congruent	89	1.775	s602
68.744864	1.7	1.0	71.0	double	attention_network_task	up	right	incongruent	71	0.614	s602
71.355864	1.7	1.0	89.0	double	attention_network_task	up	left	incongruent	89	1.235	s602
73.966	1.7	1.0	71.0	double	attention_network_task	down	right	incongruent	71	0.942	s602
76.573864	1.7	1.0	89.0	spatial	attention_network_task	up	left	incongruent	89	0.696	s602
79.18104799999999	1.7	1.0	89.0	spatial	attention_network_task	up	left	incongruent	89	0.621	s602
81.789864	1.7	1.0	89.0	double	attention_network_task	down	left	incongruent	89	0.704	s602
84.397592	1.7	1.0	71.0	double	attention_network_task	up	right	incongruent	71	0.679	s602
87.005048	1.7	1.0	71.0	spatial	attention_network_task	down	right	incongruent	71	0.964	s602
89.613864	1.7	1.0	89.0	double	attention_network_task	down	left	incongruent	89	0.762	s602
92.221728	1.7	1.0	89.0	double	attention_network_task	down	left	incongruent	89	0.955	s602
94.834728	1.7	1.0	89.0	double	attention_network_task	up	left	incongruent	89	1.387	s602
97.443	1.7	1.0	71.0	double	attention_network_task	down	right	congruent	71	0.749	s602
100.052	1.7	1.0	71.0	spatial	attention_network_task	up	right	incongruent	71	0.854	s602
102.662728	1.7	1.0	71.0	spatial	attention_network_task	down	right	congruent	71	0.881	s602
105.273	1.7	1.0	89.0	spatial	attention_network_task	down	left	congruent	89	0.71	s602
107.883	1.7	1.0	71.0	spatial	attention_network_task	down	right	incongruent	71	1.088	s602
110.493728	1.7	1.0	89.0	double	attention_network_task	up	left	congruent	89	0.652	s602
113.102	1.7	1.0	71.0	spatial	attention_network_task	down	right	incongruent	71	0.754	s602
115.712864	1.7	1.0	89.0	spatial	attention_network_task	down	left	congruent	89	1.765	s602
118.322728	1.7	1.0	89.0	spatial	attention_network_task	up	left	congruent	89	0.593	s602
120.931	1.7	1.0	89.0	spatial	attention_network_task	up	left	congruent	89	0.412	s602
123.539	1.7	0.0	71.0	double	attention_network_task	up	right	incongruent	89	0.43	s602
126.152	1.7	1.0	89.0	double	attention_network_task	up	left	congruent	89	0.599	s602
128.761	1.7	1.0	89.0	spatial	attention_network_task	down	left	incongruent	89	1.036	s602
131.374	1.7	1.0	71.0	double	attention_network_task	up	right	congruent	71	0.597	s602
133.982	1.7	1.0	71.0	spatial	attention_network_task	down	right	incongruent	71	0.951	s602
136.589728	1.7	1.0	71.0	double	attention_network_task	down	right	congruent	71	1.264	s602
139.200864	1.7	1.0	71.0	double	attention_network_task	up	right	incongruent	71	0.787	s602
141.815912	1.7	1.0	89.0	double	attention_network_task	down	left	incongruent	89	0.916	s602
144.423728	1.7	1.0	89.0	spatial	attention_network_task	down	left	congruent	89	0.618	s602
147.032864	1.7	1.0	89.0	spatial	attention_network_task	down	left	congruent	89	0.486	s602
149.639864	1.7	1.0	89.0	double	attention_network_task	down	left	congruent	89	0.856	s602
152.253	1.7	1.0	71.0	double	attention_network_task	up	right	congruent	71	0.592	s602
154.862	1.7	0.0	71.0	spatial	attention_network_task	down	right	incongruent	89	0.592	s602
157.475	1.7	1.0	71.0	spatial	attention_network_task	up	right	congruent	71	0.786	s602
160.083	1.7	1.0	71.0	double	attention_network_task	down	right	incongruent	71	0.662	s602
162.690864	1.7	1.0	89.0	spatial	attention_network_task	up	left	incongruent	89	1.131	s602
165.303728	1.7	0.0	71.0	double	attention_network_task	down	right	incongruent	-1	n/a	s602
167.912864	1.7	1.0	71.0	spatial	attention_network_task	up	right	congruent	71	0.625	s602
181.032864	1.7	1.0	89.0	double	attention_network_task	up	left	congruent	89	1.065	s602
183.641	1.7	1.0	71.0	double	attention_network_task	up	right	incongruent	71	0.629	s602
186.252	1.7	1.0	89.0	spatial	attention_network_task	down	left	congruent	89	0.576	s602
188.862592	1.7	1.0	71.0	double	attention_network_task	up	right	congruent	71	0.462	s602
191.470456	1.7	1.0	71.0	double	attention_network_task	up	right	congruent	71	0.536	s602
194.082592	1.7	1.0	89.0	spatial	attention_network_task	up	left	incongruent	89	0.464	s602
196.695	1.7	1.0	71.0	spatial	attention_network_task	down	right	congruent	71	0.771	s602
199.304592	1.7	1.0	89.0	double	attention_network_task	up	left	congruent	89	0.784	s602
201.912	1.7	1.0	71.0	spatial	attention_network_task	up	right	congruent	71	0.517	s602
204.51959200000002	1.7	1.0	89.0	spatial	attention_network_task	up	left	congruent	89	0.56	s602
207.13	1.7	1.0	71.0	spatial	attention_network_task	down	right	incongruent	71	1.23	s602
209.737	1.7	1.0	89.0	spatial	attention_network_task	down	left	incongruent	89	1.304	s602
212.343592	1.7	1.0	71.0	spatial	attention_network_task	up	right	incongruent	71	1.183	s602
214.953864	1.7	1.0	89.0	spatial	attention_network_task	up	left	incongruent	89	1.686	s602
217.559728	1.7	1.0	89.0	double	attention_network_task	down	left	incongruent	89	1.086	s602
220.17345600000002	1.7	1.0	89.0	double	attention_network_task	down	left	incongruent	89	0.796	s602
222.78172800000002	1.7	1.0	89.0	spatial	attention_network_task	down	left	incongruent	89	0.674	s602
225.39	1.7	1.0	89.0	spatial	attention_network_task	down	left	incongruent	89	0.946	s602
227.997592	1.7	1.0	71.0	spatial	attention_network_task	down	right	incongruent	71	0.733	s602
230.61	1.7	1.0	89.0	spatial	attention_network_task	up	left	congruent	89	1.005	s602
233.219	1.7	1.0	89.0	double	attention_network_task	down	left	congruent	89	0.618	s602
235.826456	1.7	1.0	71.0	double	attention_network_task	down	right	incongruent	71	0.689	s602
238.434592	1.7	1.0	71.0	spatial	attention_network_task	down	right	congruent	71	0.572	s602
241.043	1.7	1.0	89.0	spatial	attention_network_task	down	left	congruent	89	1.072	s602
243.650864	1.7	1.0	71.0	spatial	attention_network_task	up	right	congruent	71	0.649	s602
246.26218400000002	1.7	1.0	89.0	spatial	attention_network_task	up	left	incongruent	89	0.934	s602
248.871864	1.7	1.0	71.0	double	attention_network_task	down	right	congruent	71	1.095	s602
251.48	1.7	1.0	71.0	spatial	attention_network_task	up	right	congruent	71	0.96	s602
254.094864	1.7	1.0	89.0	double	attention_network_task	up	left	incongruent	89	0.548	s602
256.701864	1.7	1.0	89.0	spatial	attention_network_task	up	left	incongruent	89	0.886	s602
259.309864	1.7	0.0	89.0	double	attention_network_task	up	left	incongruent	71	0.986	s602
261.917456	1.7	1.0	71.0	spatial	attention_network_task	down	right	congruent	71	0.862	s602
264.526	1.7	1.0	71.0	spatial	attention_network_task	down	right	congruent	71	0.828	s602
267.133728	1.7	1.0	71.0	double	attention_network_task	down	right	incongruent	71	0.862	s602
269.744	1.7	1.0	71.0	spatial	attention_network_task	up	right	congruent	71	0.689	s602
272.349864	1.7	1.0	71.0	spatial	attention_network_task	down	right	congruent	71	0.545	s602
274.96259200000003	1.7	1.0	89.0	double	attention_network_task	up	left	incongruent	89	1.147	s602
277.570456	1.7	1.0	89.0	double	attention_network_task	up	left	congruent	89	0.832	s602
280.179	1.7	1.0	71.0	double	attention_network_task	down	right	incongruent	71	0.903	s602
282.786864	1.7	1.0	89.0	spatial	attention_network_task	down	left	incongruent	89	0.721	s602
285.394864	1.7	1.0	71.0	double	attention_network_task	down	right	incongruent	71	0.817	s602
288.002864	1.7	1.0	71.0	spatial	attention_network_task	up	right	incongruent	71	0.715	s602
290.610864	1.7	1.0	89.0	double	attention_network_task	down	left	congruent	89	0.963	s602
293.222728	1.7	1.0	89.0	spatial	attention_network_task	down	left	incongruent	89	0.894	s602
295.831864	1.7	1.0	89.0	spatial	attention_network_task	down	left	incongruent	89	1.469	s602
298.439592	1.7	1.0	71.0	spatial	attention_network_task	up	right	incongruent	71	1.163	s602
301.049	1.7	1.0	89.0	double	attention_network_task	up	left	incongruent	89	0.705	s602
303.661864	1.7	1.0	71.0	double	attention_network_task	down	right	congruent	71	0.969	s602
306.27	1.7	1.0	71.0	spatial	attention_network_task	up	right	congruent	71	0.622	s602
308.882864	1.7	1.0	71.0	double	attention_network_task	down	right	incongruent	71	0.565	s602
311.495048	1.7	1.0	89.0	spatial	attention_network_task	down	left	congruent	89	1.026	s602
314.103728	1.7	1.0	89.0	double	attention_network_task	up	left	congruent	89	1.26	s602
316.712864	1.7	1.0	71.0	double	attention_network_task	down	right	congruent	71	1.244	s602
319.326	1.7	1.0	71.0	double	attention_network_task	up	right	incongruent	71	0.65	s602
321.933864	1.7	1.0	71.0	spatial	attention_network_task	up	right	incongruent	71	0.542	s602
324.547	1.7	1.0	89.0	double	attention_network_task	up	left	congruent	89	1.143	s602
327.154864	1.7	1.0	89.0	spatial	attention_network_task	up	left	incongruent	89	0.728	s602
329.767728	1.7	1.0	89.0	double	attention_network_task	down	left	incongruent	89	1.343	s602
332.375728	1.7	1.0	71.0	spatial	attention_network_task	up	right	incongruent	71	0.772	s602
334.984864	1.7	1.0	89.0	double	attention_network_task	down	left	congruent	89	0.748	s602
337.592	1.7	1.0	89.0	double	attention_network_task	down	left	incongruent	89	0.713	s602
340.199864	1.7	1.0	71.0	double	attention_network_task	up	right	incongruent	71	0.971	s602
342.813	1.7	1.0	71.0	spatial	attention_network_task	down	right	congruent	71	0.913	s602
345.423728	1.7	1.0	71.0	double	attention_network_task	down	right	congruent	71	1.216	s602
