onset	duration	block_duration	movement_onset	planning	condition	exp_stage	experiment_exp_id	key_press	problem_id	response_time	trial_id	trial_type	worker_id	junk
3.008	2.054	2.054	5.062	1	UA_with_intermediate	practice	ward_and_allport	71	0.0	2.054	to_hand	poldrack-single-stim	s525	False
5.064	0.1	0.863	5.927	0	UA_with_intermediate	practice	ward_and_allport	89	0.0	0.863	to_board	poldrack-single-stim	s525	False
5.928	0.1	3.209	9.137	0	UA_with_intermediate	practice	ward_and_allport	71	0.0	3.209	to_hand	poldrack-single-stim	s525	False
9.138	0.1	0.818	9.956	0	UA_with_intermediate	practice	ward_and_allport	89	0.0	0.818	to_board	poldrack-single-stim	s525	False
9.957	0.1	4.6	14.557	0	UA_with_intermediate	practice	ward_and_allport	89	0.0	4.6	to_hand	poldrack-single-stim	s525	False
14.557	0.1	0.042	14.599	0	UA_with_intermediate	practice	ward_and_allport	71	0.0	0.042	to_board	poldrack-single-stim	s525	False
14.6	0.1	0.868	15.468	0	UA_with_intermediate	practice	ward_and_allport	89	0.0	0.868	to_hand	poldrack-single-stim	s525	False
15.469	0.1	0.608	16.077	0	UA_with_intermediate	practice	ward_and_allport	71	0.0	0.608	to_board	poldrack-single-stim	s525	False
16.078	0.1	1.27	17.348	0	UA_with_intermediate	practice	ward_and_allport	71	0.0	1.27	to_hand	poldrack-single-stim	s525	False
17.349	0.1	0.536	17.885	0	UA_with_intermediate	practice	ward_and_allport	82	0.0	0.536	to_board	poldrack-single-stim	s525	False
17.888	0.1	0.629	18.517	0	UA_with_intermediate	practice	ward_and_allport	71	0.0	0.629	to_hand	poldrack-single-stim	s525	False
18.519	0.1	0.509	19.028	0	UA_with_intermediate	practice	ward_and_allport	89	0.0	0.509	to_board	poldrack-single-stim	s525	False
19.03	0.1	0.71	19.74	0	UA_with_intermediate	practice	ward_and_allport	82	0.0	0.71	to_hand	poldrack-single-stim	s525	False
19.74	0.1	0.861	20.601	0	UA_with_intermediate	practice	ward_and_allport	89	0.0	0.861	to_board	poldrack-single-stim	s525	False
20.605	1.0	2.5	20.604	0	UA_with_intermediate	practice	ward_and_allport	-1	0.0	n/a	feedback	poldrack-single-stim	s525	False
23.107	2.937	2.937	26.044	1	UA_with_intermediate	practice	ward_and_allport	89	1.0	2.937	to_hand	poldrack-single-stim	s525	False
26.045	0.1	1.339	27.384	0	UA_with_intermediate	practice	ward_and_allport	82	1.0	1.339	to_board	poldrack-single-stim	s525	False
27.387	0.1	0.593	27.98	0	UA_with_intermediate	practice	ward_and_allport	71	1.0	0.593	to_hand	poldrack-single-stim	s525	False
27.981	0.1	0.368	28.349	0	UA_with_intermediate	practice	ward_and_allport	89	1.0	0.368	to_board	poldrack-single-stim	s525	False
28.351	0.1	0.63	28.981	0	UA_with_intermediate	practice	ward_and_allport	82	1.0	0.63	to_hand	poldrack-single-stim	s525	False
28.982	0.1	0.66	29.642	0	UA_with_intermediate	practice	ward_and_allport	89	1.0	0.66	to_board	poldrack-single-stim	s525	False
29.645	1.0	2.1	29.644	0	UA_with_intermediate	practice	ward_and_allport	-1	1.0	n/a	feedback	poldrack-single-stim	s525	False
31.748	1.996	1.996	33.744	1	UA_without_intermediate	practice	ward_and_allport	82	2.0	1.996	to_hand	poldrack-single-stim	s525	False
33.744	0.1	0.698	34.442	0	UA_without_intermediate	practice	ward_and_allport	89	2.0	0.698	to_board	poldrack-single-stim	s525	False
34.443	0.1	0.749	35.192	0	UA_without_intermediate	practice	ward_and_allport	71	2.0	0.749	to_hand	poldrack-single-stim	s525	False
35.193	0.1	0.53	35.723	0	UA_without_intermediate	practice	ward_and_allport	89	2.0	0.53	to_board	poldrack-single-stim	s525	False
35.725	0.1	0.444	36.169	0	UA_without_intermediate	practice	ward_and_allport	71	2.0	0.444	to_hand	poldrack-single-stim	s525	False
36.169	0.1	0.352	36.521	0	UA_without_intermediate	practice	ward_and_allport	89	2.0	0.352	to_board	poldrack-single-stim	s525	False
36.525	1.0	2.2	36.524	0	UA_without_intermediate	practice	ward_and_allport	-1	2.0	n/a	feedback	poldrack-single-stim	s525	False
38.727	2.026	2.026	40.753	1	UA_without_intermediate	practice	ward_and_allport	71	3.0	2.026	to_hand	poldrack-single-stim	s525	False
40.755	0.1	0.43	41.185	0	UA_without_intermediate	practice	ward_and_allport	89	3.0	0.43	to_board	poldrack-single-stim	s525	False
41.188	0.1	0.984	42.172	0	UA_without_intermediate	practice	ward_and_allport	82	3.0	0.984	to_hand	poldrack-single-stim	s525	False
42.173	0.1	0.667	42.84	0	UA_without_intermediate	practice	ward_and_allport	89	3.0	0.667	to_board	poldrack-single-stim	s525	False
42.842	0.1	0.522	43.364	0	UA_without_intermediate	practice	ward_and_allport	71	3.0	0.522	to_hand	poldrack-single-stim	s525	False
43.365	0.1	0.307	43.672	0	UA_without_intermediate	practice	ward_and_allport	89	3.0	0.307	to_board	poldrack-single-stim	s525	False
43.676	1.0	2.0	43.675	0	UA_without_intermediate	practice	ward_and_allport	-1	3.0	n/a	feedback	poldrack-single-stim	s525	False
47.683	2.575	2.575	50.258	1	PA_with_intermediate	test	ward_and_allport	71	0.0	2.575	to_hand	poldrack-single-stim	s525	False
50.259	0.1	1.393	51.652	0	PA_with_intermediate	test	ward_and_allport	89	0.0	1.393	to_board	poldrack-single-stim	s525	False
51.654	0.1	1.074	52.728	0	PA_with_intermediate	test	ward_and_allport	71	0.0	1.074	to_hand	poldrack-single-stim	s525	False
52.729	0.1	0.317	53.046	0	PA_with_intermediate	test	ward_and_allport	82	0.0	0.317	to_board	poldrack-single-stim	s525	False
53.049	0.1	2.359	55.408	0	PA_with_intermediate	test	ward_and_allport	89	0.0	2.359	to_hand	poldrack-single-stim	s525	False
55.408	0.1	0.408	55.816	0	PA_with_intermediate	test	ward_and_allport	71	0.0	0.408	to_board	poldrack-single-stim	s525	False
55.821	1.0	4.176	55.82	0	PA_with_intermediate	test	ward_and_allport	-1	0.0	n/a	feedback	poldrack-single-stim	s525	False
59.998	1.826	1.826	61.824	1	PA_with_intermediate	test	ward_and_allport	71	1.0	1.826	to_hand	poldrack-single-stim	s525	False
61.826	0.1	0.61	62.436	0	PA_with_intermediate	test	ward_and_allport	89	1.0	0.61	to_board	poldrack-single-stim	s525	False
62.438	0.1	0.631	63.069	0	PA_with_intermediate	test	ward_and_allport	71	1.0	0.631	to_hand	poldrack-single-stim	s525	False
63.069	0.1	0.333	63.402	0	PA_with_intermediate	test	ward_and_allport	82	1.0	0.333	to_board	poldrack-single-stim	s525	False
63.405	0.1	0.444	63.849	0	PA_with_intermediate	test	ward_and_allport	89	1.0	0.444	to_hand	poldrack-single-stim	s525	False
63.85	0.1	0.323	64.173	0	PA_with_intermediate	test	ward_and_allport	71	1.0	0.323	to_board	poldrack-single-stim	s525	False
64.176	1.0	3.36	64.175	0	PA_with_intermediate	test	ward_and_allport	-1	1.0	n/a	feedback	poldrack-single-stim	s525	False
67.538	4.303	4.303	71.841	1	PA_with_intermediate	test	ward_and_allport	82	2.0	4.303	to_hand	poldrack-single-stim	s525	False
71.843	0.1	0.84	72.683	0	PA_with_intermediate	test	ward_and_allport	89	2.0	0.84	to_board	poldrack-single-stim	s525	False
72.686	0.1	1.363	74.049	0	PA_with_intermediate	test	ward_and_allport	89	2.0	1.363	to_hand	poldrack-single-stim	s525	False
74.05	0.1	0.633	74.683	0	PA_with_intermediate	test	ward_and_allport	89	2.0	0.633	to_board	poldrack-single-stim	s525	False
74.685	0.1	1.161	75.846	0	PA_with_intermediate	test	ward_and_allport	82	2.0	1.161	to_hand	poldrack-single-stim	s525	False
75.847	0.1	0.582	76.429	0	PA_with_intermediate	test	ward_and_allport	71	2.0	0.582	to_board	poldrack-single-stim	s525	False
76.433	0.1	1.275	77.708	0	PA_with_intermediate	test	ward_and_allport	89	2.0	1.275	to_hand	poldrack-single-stim	s525	False
77.708	0.1	0.552	78.26	0	PA_with_intermediate	test	ward_and_allport	82	2.0	0.552	to_board	poldrack-single-stim	s525	False
78.263	1.0	2.0	78.262	0	PA_with_intermediate	test	ward_and_allport	-1	2.0	n/a	feedback	poldrack-single-stim	s525	False
80.266	1.992	1.992	82.258	1	PA_without_intermediate	test	ward_and_allport	71	3.0	1.992	to_hand	poldrack-single-stim	s525	False
82.26	0.1	0.552	82.812	0	PA_without_intermediate	test	ward_and_allport	82	3.0	0.552	to_board	poldrack-single-stim	s525	False
82.814	0.1	1.033	83.847	0	PA_without_intermediate	test	ward_and_allport	71	3.0	1.033	to_hand	poldrack-single-stim	s525	False
83.848	0.1	0.375	84.223	0	PA_without_intermediate	test	ward_and_allport	89	3.0	0.375	to_board	poldrack-single-stim	s525	False
84.225	0.1	2.019	86.244	0	PA_without_intermediate	test	ward_and_allport	71	3.0	2.019	to_hand	poldrack-single-stim	s525	False
86.246	0.1	0.386	86.632	0	PA_without_intermediate	test	ward_and_allport	82	3.0	0.386	to_board	poldrack-single-stim	s525	False
86.636	1.0	2.408	86.635	0	PA_without_intermediate	test	ward_and_allport	-1	3.0	n/a	feedback	poldrack-single-stim	s525	False
89.045	4.011	4.011	93.056	1	PA_with_intermediate	test	ward_and_allport	82	4.0	4.011	to_hand	poldrack-single-stim	s525	False
93.058	0.1	0.431	93.489	0	PA_with_intermediate	test	ward_and_allport	89	4.0	0.431	to_board	poldrack-single-stim	s525	False
93.492	0.1	0.772	94.264	0	PA_with_intermediate	test	ward_and_allport	82	4.0	0.772	to_hand	poldrack-single-stim	s525	False
94.265	0.1	0.7	94.965	0	PA_with_intermediate	test	ward_and_allport	89	4.0	0.7	to_board	poldrack-single-stim	s525	False
94.968	0.1	2.674	97.642	0	PA_with_intermediate	test	ward_and_allport	89	4.0	2.674	to_hand	poldrack-single-stim	s525	False
97.643	0.1	0.483	98.126	0	PA_with_intermediate	test	ward_and_allport	82	4.0	0.483	to_board	poldrack-single-stim	s525	False
98.129	0.1	0.946	99.075	0	PA_with_intermediate	test	ward_and_allport	89	4.0	0.946	to_hand	poldrack-single-stim	s525	False
99.076	0.1	0.948	100.024	0	PA_with_intermediate	test	ward_and_allport	89	4.0	0.948	to_board	poldrack-single-stim	s525	False
100.027	0.1	0.71	100.737	0	PA_with_intermediate	test	ward_and_allport	82	4.0	0.71	to_hand	poldrack-single-stim	s525	False
100.737	0.1	0.6	101.337	0	PA_with_intermediate	test	ward_and_allport	71	4.0	0.6	to_board	poldrack-single-stim	s525	False
101.341	0.1	0.681	102.022	0	PA_with_intermediate	test	ward_and_allport	89	4.0	0.681	to_hand	poldrack-single-stim	s525	False
102.023	0.1	0.335	102.358	0	PA_with_intermediate	test	ward_and_allport	71	4.0	0.335	to_board	poldrack-single-stim	s525	False
102.362	1.0	2.816	102.361	0	PA_with_intermediate	test	ward_and_allport	-1	4.0	n/a	feedback	poldrack-single-stim	s525	False
105.18	2.724	2.724	107.904	1	PA_without_intermediate	test	ward_and_allport	82	5.0	2.724	to_hand	poldrack-single-stim	s525	False
107.905	0.1	0.5	108.405	0	PA_without_intermediate	test	ward_and_allport	89	5.0	0.5	to_board	poldrack-single-stim	s525	False
108.407	0.1	2.287	110.694	0	PA_without_intermediate	test	ward_and_allport	82	5.0	2.287	to_hand	poldrack-single-stim	s525	False
110.695	0.1	0.575	111.27	0	PA_without_intermediate	test	ward_and_allport	71	5.0	0.575	to_board	poldrack-single-stim	s525	False
111.274	0.1	0.674	111.948	0	PA_without_intermediate	test	ward_and_allport	82	5.0	0.674	to_hand	poldrack-single-stim	s525	False
111.949	0.1	0.451	112.4	0	PA_without_intermediate	test	ward_and_allport	89	5.0	0.451	to_board	poldrack-single-stim	s525	False
112.405	1.0	3.088	112.404	0	PA_without_intermediate	test	ward_and_allport	-1	5.0	n/a	feedback	poldrack-single-stim	s525	False
115.496	1.962	1.962	117.458	1	PA_without_intermediate	test	ward_and_allport	82	6.0	1.962	to_hand	poldrack-single-stim	s525	False
117.459	0.1	1.755	119.214	0	PA_without_intermediate	test	ward_and_allport	71	6.0	1.755	to_board	poldrack-single-stim	s525	False
119.217	0.1	1.532	120.749	0	PA_without_intermediate	test	ward_and_allport	82	6.0	1.532	to_hand	poldrack-single-stim	s525	False
120.751	0.1	0.361	121.112	0	PA_without_intermediate	test	ward_and_allport	89	6.0	0.361	to_board	poldrack-single-stim	s525	False
121.115	0.1	0.47	121.585	0	PA_without_intermediate	test	ward_and_allport	82	6.0	0.47	to_hand	poldrack-single-stim	s525	False
121.586	0.1	0.388	121.974	0	PA_without_intermediate	test	ward_and_allport	71	6.0	0.388	to_board	poldrack-single-stim	s525	False
121.979	1.0	2.136	121.978	0	PA_without_intermediate	test	ward_and_allport	-1	6.0	n/a	feedback	poldrack-single-stim	s525	False
124.12	2.991	2.991	127.111	1	PA_without_intermediate	test	ward_and_allport	89	7.0	2.991	to_hand	poldrack-single-stim	s525	False
127.112	0.1	0.534	127.646	0	PA_without_intermediate	test	ward_and_allport	82	7.0	0.534	to_board	poldrack-single-stim	s525	False
127.65	0.1	2.072	129.722	0	PA_without_intermediate	test	ward_and_allport	89	7.0	2.072	to_hand	poldrack-single-stim	s525	False
129.722	0.1	0.636	130.358	0	PA_without_intermediate	test	ward_and_allport	71	7.0	0.636	to_board	poldrack-single-stim	s525	False
130.362	0.1	0.742	131.104	0	PA_without_intermediate	test	ward_and_allport	89	7.0	0.742	to_hand	poldrack-single-stim	s525	False
131.106	0.1	0.552	131.658	0	PA_without_intermediate	test	ward_and_allport	82	7.0	0.552	to_board	poldrack-single-stim	s525	False
131.663	1.0	7.168	131.662	0	PA_without_intermediate	test	ward_and_allport	-1	7.0	n/a	feedback	poldrack-single-stim	s525	False
138.836	2.927	2.927	141.763	1	PA_without_intermediate	test	ward_and_allport	89	8.0	2.927	to_hand	poldrack-single-stim	s525	False
141.764	0.1	0.427	142.191	0	PA_without_intermediate	test	ward_and_allport	71	8.0	0.427	to_board	poldrack-single-stim	s525	False
142.196	0.1	0.689	142.885	0	PA_without_intermediate	test	ward_and_allport	89	8.0	0.689	to_hand	poldrack-single-stim	s525	False
142.886	0.1	0.31	143.196	0	PA_without_intermediate	test	ward_and_allport	71	8.0	0.31	to_board	poldrack-single-stim	s525	False
143.2	0.1	0.462	143.662	0	PA_without_intermediate	test	ward_and_allport	89	8.0	0.462	to_hand	poldrack-single-stim	s525	False
143.663	0.1	0.298	143.961	0	PA_without_intermediate	test	ward_and_allport	82	8.0	0.298	to_board	poldrack-single-stim	s525	False
143.966	1.0	2.816	143.965	0	PA_without_intermediate	test	ward_and_allport	-1	8.0	n/a	feedback	poldrack-single-stim	s525	False
146.787	2.985	2.985	149.772	1	PA_with_intermediate	test	ward_and_allport	82	9.0	2.985	to_hand	poldrack-single-stim	s525	False
149.773	0.1	0.497	150.27	0	PA_with_intermediate	test	ward_and_allport	89	9.0	0.497	to_board	poldrack-single-stim	s525	False
150.273	0.1	2.412	152.685	0	PA_with_intermediate	test	ward_and_allport	89	9.0	2.412	to_hand	poldrack-single-stim	s525	False
152.685	0.1	0.446	153.131	0	PA_with_intermediate	test	ward_and_allport	71	9.0	0.446	to_board	poldrack-single-stim	s525	False
153.135	0.1	0.559	153.694	0	PA_with_intermediate	test	ward_and_allport	82	9.0	0.559	to_hand	poldrack-single-stim	s525	False
153.695	0.1	0.591	154.286	0	PA_with_intermediate	test	ward_and_allport	89	9.0	0.591	to_board	poldrack-single-stim	s525	False
154.29	0.1	0.45	154.74	0	PA_with_intermediate	test	ward_and_allport	71	9.0	0.45	to_hand	poldrack-single-stim	s525	False
154.74	0.1	0.442	155.182	0	PA_with_intermediate	test	ward_and_allport	89	9.0	0.442	to_board	poldrack-single-stim	s525	False
155.188	1.0	2.952	155.187	0	PA_with_intermediate	test	ward_and_allport	-1	9.0	n/a	feedback	poldrack-single-stim	s525	False
158.144	4.116	4.116	162.26	1	PA_with_intermediate	test	ward_and_allport	82	10.0	4.116	to_hand	poldrack-single-stim	s525	False
162.261	0.1	0.458	162.719	0	PA_with_intermediate	test	ward_and_allport	71	10.0	0.458	to_board	poldrack-single-stim	s525	False
162.724	0.1	0.792	163.516	0	PA_with_intermediate	test	ward_and_allport	82	10.0	0.792	to_hand	poldrack-single-stim	s525	False
163.517	0.1	0.811	164.328	0	PA_with_intermediate	test	ward_and_allport	89	10.0	0.811	to_board	poldrack-single-stim	s525	False
164.333	0.1	0.478	164.811	0	PA_with_intermediate	test	ward_and_allport	71	10.0	0.478	to_hand	poldrack-single-stim	s525	False
164.812	0.1	0.407	165.219	0	PA_with_intermediate	test	ward_and_allport	89	10.0	0.407	to_board	poldrack-single-stim	s525	False
165.224	1.0	2.136	165.223	0	PA_with_intermediate	test	ward_and_allport	-1	10.0	n/a	feedback	poldrack-single-stim	s525	False
167.365	1.364	1.364	168.729	1	PA_without_intermediate	test	ward_and_allport	71	11.0	1.364	to_hand	poldrack-single-stim	s525	False
168.731	0.1	1.343	170.074	0	PA_without_intermediate	test	ward_and_allport	89	11.0	1.343	to_board	poldrack-single-stim	s525	False
170.078	0.1	0.738	170.816	0	PA_without_intermediate	test	ward_and_allport	71	11.0	0.738	to_hand	poldrack-single-stim	s525	False
170.817	0.1	0.572	171.389	0	PA_without_intermediate	test	ward_and_allport	89	11.0	0.572	to_board	poldrack-single-stim	s525	False
171.393	0.1	1.33	172.723	0	PA_without_intermediate	test	ward_and_allport	71	11.0	1.33	to_hand	poldrack-single-stim	s525	False
172.724	0.1	0.366	173.09	0	PA_without_intermediate	test	ward_and_allport	82	11.0	0.366	to_board	poldrack-single-stim	s525	False
173.095	1.0	2.68	173.094	0	PA_without_intermediate	test	ward_and_allport	-1	11.0	n/a	feedback	poldrack-single-stim	s525	False
175.778	2.382	2.382	178.16	1	PA_without_intermediate	test	ward_and_allport	82	12.0	2.382	to_hand	poldrack-single-stim	s525	False
178.161	0.1	0.637	178.798	0	PA_without_intermediate	test	ward_and_allport	71	12.0	0.637	to_board	poldrack-single-stim	s525	False
178.803	0.1	0.832	179.635	0	PA_without_intermediate	test	ward_and_allport	82	12.0	0.832	to_hand	poldrack-single-stim	s525	False
179.635	0.1	0.572	180.207	0	PA_without_intermediate	test	ward_and_allport	89	12.0	0.572	to_board	poldrack-single-stim	s525	False
180.212	0.1	0.767	180.979	0	PA_without_intermediate	test	ward_and_allport	82	12.0	0.767	to_hand	poldrack-single-stim	s525	False
180.979	0.1	0.432	181.411	0	PA_without_intermediate	test	ward_and_allport	71	12.0	0.432	to_board	poldrack-single-stim	s525	False
181.417	1.0	3.088	181.416	0	PA_without_intermediate	test	ward_and_allport	-1	12.0	n/a	feedback	poldrack-single-stim	s525	False
184.509	1.782	1.782	186.291	1	PA_with_intermediate	test	ward_and_allport	89	13.0	1.782	to_hand	poldrack-single-stim	s525	False
186.292	0.1	0.761	187.053	0	PA_with_intermediate	test	ward_and_allport	71	13.0	0.761	to_board	poldrack-single-stim	s525	False
187.058	0.1	1.264	188.322	0	PA_with_intermediate	test	ward_and_allport	71	13.0	1.264	to_hand	poldrack-single-stim	s525	False
188.323	0.1	0.722	189.045	0	PA_with_intermediate	test	ward_and_allport	71	13.0	0.722	to_board	poldrack-single-stim	s525	False
189.049	0.1	0.447	189.496	0	PA_with_intermediate	test	ward_and_allport	89	13.0	0.447	to_hand	poldrack-single-stim	s525	False
189.497	0.1	0.566	190.063	0	PA_with_intermediate	test	ward_and_allport	82	13.0	0.566	to_board	poldrack-single-stim	s525	False
190.068	0.1	0.584	190.652	0	PA_with_intermediate	test	ward_and_allport	71	13.0	0.584	to_hand	poldrack-single-stim	s525	False
190.652	0.1	0.304	190.956	0	PA_with_intermediate	test	ward_and_allport	89	13.0	0.304	to_board	poldrack-single-stim	s525	False
190.962	1.0	2.0	190.961	0	PA_with_intermediate	test	ward_and_allport	-1	13.0	n/a	feedback	poldrack-single-stim	s525	False
192.967	1.2	1.2	194.167	1	PA_without_intermediate	test	ward_and_allport	82	14.0	1.2	to_hand	poldrack-single-stim	s525	False
194.168	0.1	2.009	196.177	0	PA_without_intermediate	test	ward_and_allport	89	14.0	2.009	to_board	poldrack-single-stim	s525	False
196.182	0.1	0.642	196.824	0	PA_without_intermediate	test	ward_and_allport	82	14.0	0.642	to_hand	poldrack-single-stim	s525	False
196.825	0.1	0.25	197.075	0	PA_without_intermediate	test	ward_and_allport	71	14.0	0.25	to_board	poldrack-single-stim	s525	False
197.081	0.1	0.662	197.743	0	PA_without_intermediate	test	ward_and_allport	71	14.0	0.662	to_hand	poldrack-single-stim	s525	False
197.744	0.1	0.272	198.016	0	PA_without_intermediate	test	ward_and_allport	89	14.0	0.272	to_board	poldrack-single-stim	s525	False
198.02	0.1	0.581	198.601	0	PA_without_intermediate	test	ward_and_allport	82	14.0	0.581	to_hand	poldrack-single-stim	s525	False
198.603	0.1	0.427	199.03	0	PA_without_intermediate	test	ward_and_allport	71	14.0	0.427	to_board	poldrack-single-stim	s525	False
199.037	1.0	2.0	199.036	0	PA_without_intermediate	test	ward_and_allport	-1	14.0	n/a	feedback	poldrack-single-stim	s525	False
206.045	2.097	2.097	208.142	1	PA_without_intermediate	test	ward_and_allport	89	15.0	2.097	to_hand	poldrack-single-stim	s525	False
208.143	0.1	0.534	208.677	0	PA_without_intermediate	test	ward_and_allport	71	15.0	0.534	to_board	poldrack-single-stim	s525	False
208.682	0.1	1.331	210.013	0	PA_without_intermediate	test	ward_and_allport	89	15.0	1.331	to_hand	poldrack-single-stim	s525	False
210.014	0.1	0.458	210.472	0	PA_without_intermediate	test	ward_and_allport	82	15.0	0.458	to_board	poldrack-single-stim	s525	False
210.477	0.1	0.605	211.082	0	PA_without_intermediate	test	ward_and_allport	89	15.0	0.605	to_hand	poldrack-single-stim	s525	False
211.083	0.1	0.276	211.359	0	PA_without_intermediate	test	ward_and_allport	71	15.0	0.276	to_board	poldrack-single-stim	s525	False
211.364	1.0	2.0	211.363	0	PA_without_intermediate	test	ward_and_allport	-1	15.0	n/a	feedback	poldrack-single-stim	s525	False
213.369	2.72	2.72	216.089	1	PA_with_intermediate	test	ward_and_allport	89	16.0	2.72	to_hand	poldrack-single-stim	s525	False
216.09	0.1	0.99	217.08	0	PA_with_intermediate	test	ward_and_allport	71	16.0	0.99	to_board	poldrack-single-stim	s525	False
217.084	0.1	0.429	217.513	0	PA_with_intermediate	test	ward_and_allport	89	16.0	0.429	to_hand	poldrack-single-stim	s525	False
217.515	0.1	0.317	217.832	0	PA_with_intermediate	test	ward_and_allport	82	16.0	0.317	to_board	poldrack-single-stim	s525	False
217.837	0.1	0.806	218.643	0	PA_with_intermediate	test	ward_and_allport	89	16.0	0.806	to_hand	poldrack-single-stim	s525	False
218.645	0.1	1.042	219.687	0	PA_with_intermediate	test	ward_and_allport	89	16.0	1.042	to_board	poldrack-single-stim	s525	False
219.692	0.1	0.923	220.615	0	PA_with_intermediate	test	ward_and_allport	71	16.0	0.923	to_hand	poldrack-single-stim	s525	False
220.616	0.1	0.332	220.948	0	PA_with_intermediate	test	ward_and_allport	82	16.0	0.332	to_board	poldrack-single-stim	s525	False
220.953	1.0	2.544	220.952	0	PA_with_intermediate	test	ward_and_allport	-1	16.0	n/a	feedback	poldrack-single-stim	s525	False
223.502	2.393	2.393	225.895	1	PA_without_intermediate	test	ward_and_allport	82	17.0	2.393	to_hand	poldrack-single-stim	s525	False
225.895	0.1	0.438	226.333	0	PA_without_intermediate	test	ward_and_allport	71	17.0	0.438	to_board	poldrack-single-stim	s525	False
226.337	0.1	0.794	227.131	0	PA_without_intermediate	test	ward_and_allport	82	17.0	0.794	to_hand	poldrack-single-stim	s525	False
227.132	0.1	0.396	227.528	0	PA_without_intermediate	test	ward_and_allport	71	17.0	0.396	to_board	poldrack-single-stim	s525	False
227.533	0.1	0.677	228.21	0	PA_without_intermediate	test	ward_and_allport	82	17.0	0.677	to_hand	poldrack-single-stim	s525	False
228.212	0.1	0.354	228.566	0	PA_without_intermediate	test	ward_and_allport	89	17.0	0.354	to_board	poldrack-single-stim	s525	False
228.572	1.0	2.272	228.571	0	PA_without_intermediate	test	ward_and_allport	-1	17.0	n/a	feedback	poldrack-single-stim	s525	False
230.85	3.535	3.535	234.385	1	PA_with_intermediate	test	ward_and_allport	89	18.0	3.535	to_hand	poldrack-single-stim	s525	False
234.386	0.1	0.853	235.239	0	PA_with_intermediate	test	ward_and_allport	82	18.0	0.853	to_board	poldrack-single-stim	s525	False
235.243	0.1	0.577	235.82	0	PA_with_intermediate	test	ward_and_allport	89	18.0	0.577	to_hand	poldrack-single-stim	s525	False
235.822	0.1	0.456	236.278	0	PA_with_intermediate	test	ward_and_allport	71	18.0	0.456	to_board	poldrack-single-stim	s525	False
236.283	0.1	0.487	236.77	0	PA_with_intermediate	test	ward_and_allport	82	18.0	0.487	to_hand	poldrack-single-stim	s525	False
236.771	0.1	0.366	237.137	0	PA_with_intermediate	test	ward_and_allport	89	18.0	0.366	to_board	poldrack-single-stim	s525	False
237.143	0.1	0.72	237.863	0	PA_with_intermediate	test	ward_and_allport	89	18.0	0.72	to_hand	poldrack-single-stim	s525	False
237.864	0.1	0.281	238.145	0	PA_with_intermediate	test	ward_and_allport	71	18.0	0.281	to_board	poldrack-single-stim	s525	False
238.152	1.0	4.04	238.151	0	PA_with_intermediate	test	ward_and_allport	-1	18.0	n/a	feedback	poldrack-single-stim	s525	False
242.197	2.086	2.086	244.283	1	PA_with_intermediate	test	ward_and_allport	82	19.0	2.086	to_hand	poldrack-single-stim	s525	False
244.284	0.1	1.019	245.303	0	PA_with_intermediate	test	ward_and_allport	89	19.0	1.019	to_board	poldrack-single-stim	s525	False
245.308	0.1	0.564	245.872	0	PA_with_intermediate	test	ward_and_allport	82	19.0	0.564	to_hand	poldrack-single-stim	s525	False
245.873	0.1	0.329	246.202	0	PA_with_intermediate	test	ward_and_allport	71	19.0	0.329	to_board	poldrack-single-stim	s525	False
246.208	0.1	0.382	246.59	0	PA_with_intermediate	test	ward_and_allport	89	19.0	0.382	to_hand	poldrack-single-stim	s525	False
246.592	0.1	0.383	246.975	0	PA_with_intermediate	test	ward_and_allport	82	19.0	0.383	to_board	poldrack-single-stim	s525	False
246.982	1.0	2.272	246.981	0	PA_with_intermediate	test	ward_and_allport	-1	19.0	n/a	feedback	poldrack-single-stim	s525	False
249.261	1.801	1.801	251.062	1	PA_with_intermediate	test	ward_and_allport	71	20.0	1.801	to_hand	poldrack-single-stim	s525	False
251.062	0.1	0.801	251.863	0	PA_with_intermediate	test	ward_and_allport	82	20.0	0.801	to_board	poldrack-single-stim	s525	False
251.87	0.1	0.517	252.387	0	PA_with_intermediate	test	ward_and_allport	71	20.0	0.517	to_hand	poldrack-single-stim	s525	False
252.388	0.1	0.348	252.736	0	PA_with_intermediate	test	ward_and_allport	89	20.0	0.348	to_board	poldrack-single-stim	s525	False
252.742	0.1	0.523	253.265	0	PA_with_intermediate	test	ward_and_allport	82	20.0	0.523	to_hand	poldrack-single-stim	s525	False
253.265	0.1	0.465	253.73	0	PA_with_intermediate	test	ward_and_allport	89	20.0	0.465	to_board	poldrack-single-stim	s525	False
253.738	1.0	2.136	253.737	0	PA_with_intermediate	test	ward_and_allport	-1	20.0	n/a	feedback	poldrack-single-stim	s525	False
255.881	2.856	2.856	258.737	1	PA_with_intermediate	test	ward_and_allport	89	21.0	2.856	to_hand	poldrack-single-stim	s525	False
258.737	0.1	0.518	259.255	0	PA_with_intermediate	test	ward_and_allport	82	21.0	0.518	to_board	poldrack-single-stim	s525	False
259.262	0.1	1.468	260.73	0	PA_with_intermediate	test	ward_and_allport	89	21.0	1.468	to_hand	poldrack-single-stim	s525	False
260.731	0.1	0.52	261.251	0	PA_with_intermediate	test	ward_and_allport	71	21.0	0.52	to_board	poldrack-single-stim	s525	False
261.256	0.1	0.424	261.68	0	PA_with_intermediate	test	ward_and_allport	82	21.0	0.424	to_hand	poldrack-single-stim	s525	False
261.682	0.1	0.39	262.072	0	PA_with_intermediate	test	ward_and_allport	89	21.0	0.39	to_board	poldrack-single-stim	s525	False
262.08	1.0	2.0	262.079	0	PA_with_intermediate	test	ward_and_allport	-1	21.0	n/a	feedback	poldrack-single-stim	s525	False
264.087	2.338	2.338	266.425	1	PA_with_intermediate	test	ward_and_allport	89	22.0	2.338	to_hand	poldrack-single-stim	s525	False
266.425	0.1	1.159	267.584	0	PA_with_intermediate	test	ward_and_allport	71	22.0	1.159	to_board	poldrack-single-stim	s525	False
267.59	0.1	1.113	268.703	0	PA_with_intermediate	test	ward_and_allport	71	22.0	1.113	to_hand	poldrack-single-stim	s525	False
268.704	0.1	0.552	269.256	0	PA_with_intermediate	test	ward_and_allport	71	22.0	0.552	to_board	poldrack-single-stim	s525	False
269.263	0.1	0.309	269.572	0	PA_with_intermediate	test	ward_and_allport	89	22.0	0.309	to_hand	poldrack-single-stim	s525	False
269.573	0.1	0.323	269.896	0	PA_with_intermediate	test	ward_and_allport	82	22.0	0.323	to_board	poldrack-single-stim	s525	False
269.902	0.1	0.609	270.511	0	PA_with_intermediate	test	ward_and_allport	71	22.0	0.609	to_hand	poldrack-single-stim	s525	False
270.513	0.1	0.386	270.899	0	PA_with_intermediate	test	ward_and_allport	82	22.0	0.386	to_board	poldrack-single-stim	s525	False
270.907	1.0	2.0	270.906	0	PA_with_intermediate	test	ward_and_allport	-1	22.0	n/a	feedback	poldrack-single-stim	s525	False
272.913	2.454	2.454	275.367	1	PA_without_intermediate	test	ward_and_allport	82	23.0	2.454	to_hand	poldrack-single-stim	s525	False
275.368	0.1	0.485	275.853	0	PA_without_intermediate	test	ward_and_allport	71	23.0	0.485	to_board	poldrack-single-stim	s525	False
275.86	0.1	0.761	276.621	0	PA_without_intermediate	test	ward_and_allport	82	23.0	0.761	to_hand	poldrack-single-stim	s525	False
276.622	0.1	0.5	277.122	0	PA_without_intermediate	test	ward_and_allport	71	23.0	0.5	to_board	poldrack-single-stim	s525	False
277.128	0.1	0.694	277.822	0	PA_without_intermediate	test	ward_and_allport	82	23.0	0.694	to_hand	poldrack-single-stim	s525	False
277.823	0.1	0.632	278.455	0	PA_without_intermediate	test	ward_and_allport	89	23.0	0.632	to_board	poldrack-single-stim	s525	False
278.463	1.0	2.408	278.462	0	PA_without_intermediate	test	ward_and_allport	-1	23.0	n/a	feedback	poldrack-single-stim	s525	False
280.878	1.146	1.146	282.024	1	PA_with_intermediate	test	ward_and_allport	71	24.0	1.146	to_hand	poldrack-single-stim	s525	False
282.025	0.1	1.182	283.207	0	PA_with_intermediate	test	ward_and_allport	82	24.0	1.182	to_board	poldrack-single-stim	s525	False
283.214	0.1	0.556	283.77	0	PA_with_intermediate	test	ward_and_allport	71	24.0	0.556	to_hand	poldrack-single-stim	s525	False
283.771	0.1	0.498	284.269	0	PA_with_intermediate	test	ward_and_allport	89	24.0	0.498	to_board	poldrack-single-stim	s525	False
284.276	0.1	0.487	284.763	0	PA_with_intermediate	test	ward_and_allport	82	24.0	0.487	to_hand	poldrack-single-stim	s525	False
284.764	0.1	0.425	285.189	0	PA_with_intermediate	test	ward_and_allport	71	24.0	0.425	to_board	poldrack-single-stim	s525	False
285.197	1.0	3.768	285.196	0	PA_with_intermediate	test	ward_and_allport	-1	24.0	n/a	feedback	poldrack-single-stim	s525	False
288.974	1.392	1.392	290.366	1	PA_with_intermediate	test	ward_and_allport	71	25.0	1.392	to_hand	poldrack-single-stim	s525	False
290.366	0.1	0.73	291.096	0	PA_with_intermediate	test	ward_and_allport	89	25.0	0.73	to_board	poldrack-single-stim	s525	False
291.103	0.1	0.357	291.46	0	PA_with_intermediate	test	ward_and_allport	71	25.0	0.357	to_hand	poldrack-single-stim	s525	False
291.46	0.1	0.472	291.932	0	PA_with_intermediate	test	ward_and_allport	82	25.0	0.472	to_board	poldrack-single-stim	s525	False
291.939	0.1	1.296	293.235	0	PA_with_intermediate	test	ward_and_allport	89	25.0	1.296	to_hand	poldrack-single-stim	s525	False
293.237	0.1	0.475	293.712	0	PA_with_intermediate	test	ward_and_allport	82	25.0	0.475	to_board	poldrack-single-stim	s525	False
293.727	1.0	2.68	293.726	0	PA_with_intermediate	test	ward_and_allport	-1	25.0	n/a	feedback	poldrack-single-stim	s525	False
296.414	2.444	2.444	298.858	1	PA_without_intermediate	test	ward_and_allport	89	26.0	2.444	to_hand	poldrack-single-stim	s525	False
298.86	0.1	0.614	299.474	0	PA_without_intermediate	test	ward_and_allport	82	26.0	0.614	to_board	poldrack-single-stim	s525	False
299.481	0.1	0.544	300.025	0	PA_without_intermediate	test	ward_and_allport	89	26.0	0.544	to_hand	poldrack-single-stim	s525	False
300.025	0.1	0.459	300.484	0	PA_without_intermediate	test	ward_and_allport	82	26.0	0.459	to_board	poldrack-single-stim	s525	False
300.492	0.1	0.594	301.086	0	PA_without_intermediate	test	ward_and_allport	89	26.0	0.594	to_hand	poldrack-single-stim	s525	False
301.086	0.1	0.364	301.45	0	PA_without_intermediate	test	ward_and_allport	71	26.0	0.364	to_board	poldrack-single-stim	s525	False
301.459	1.0	3.224	301.458	0	PA_without_intermediate	test	ward_and_allport	-1	26.0	n/a	feedback	poldrack-single-stim	s525	False
304.692	1.271	1.271	305.963	1	PA_without_intermediate	test	ward_and_allport	71	27.0	1.271	to_hand	poldrack-single-stim	s525	False
305.964	0.1	0.461	306.425	0	PA_without_intermediate	test	ward_and_allport	82	27.0	0.461	to_board	poldrack-single-stim	s525	False
306.432	0.1	0.659	307.091	0	PA_without_intermediate	test	ward_and_allport	71	27.0	0.659	to_hand	poldrack-single-stim	s525	False
307.092	0.1	0.387	307.479	0	PA_without_intermediate	test	ward_and_allport	82	27.0	0.387	to_board	poldrack-single-stim	s525	False
307.488	0.1	0.587	308.075	0	PA_without_intermediate	test	ward_and_allport	71	27.0	0.587	to_hand	poldrack-single-stim	s525	False
308.076	0.1	0.372	308.448	0	PA_without_intermediate	test	ward_and_allport	89	27.0	0.372	to_board	poldrack-single-stim	s525	False
308.456	1.0	3.36	308.455	0	PA_without_intermediate	test	ward_and_allport	-1	27.0	n/a	feedback	poldrack-single-stim	s525	False
311.821	0.901	0.901	312.722	1	PA_without_intermediate	test	ward_and_allport	71	28.0	0.901	to_hand	poldrack-single-stim	s525	False
312.724	0.1	0.99	313.714	0	PA_without_intermediate	test	ward_and_allport	89	28.0	0.99	to_board	poldrack-single-stim	s525	False
313.722	0.1	0.548	314.27	0	PA_without_intermediate	test	ward_and_allport	71	28.0	0.548	to_hand	poldrack-single-stim	s525	False
314.271	0.1	0.321	314.592	0	PA_without_intermediate	test	ward_and_allport	89	28.0	0.321	to_board	poldrack-single-stim	s525	False
314.6	0.1	0.786	315.386	0	PA_without_intermediate	test	ward_and_allport	71	28.0	0.786	to_hand	poldrack-single-stim	s525	False
315.387	0.1	0.67	316.057	0	PA_without_intermediate	test	ward_and_allport	71	28.0	0.67	to_board	poldrack-single-stim	s525	False
316.065	0.1	0.486	316.551	0	PA_without_intermediate	test	ward_and_allport	89	28.0	0.486	to_hand	poldrack-single-stim	s525	False
316.552	0.1	0.708	317.26	0	PA_without_intermediate	test	ward_and_allport	82	28.0	0.708	to_board	poldrack-single-stim	s525	False
317.269	0.1	0.448	317.717	0	PA_without_intermediate	test	ward_and_allport	71	28.0	0.448	to_hand	poldrack-single-stim	s525	False
317.717	0.1	0.472	318.189	0	PA_without_intermediate	test	ward_and_allport	89	28.0	0.472	to_board	poldrack-single-stim	s525	False
318.197	1.0	2.0	318.196	0	PA_without_intermediate	test	ward_and_allport	-1	28.0	n/a	feedback	poldrack-single-stim	s525	False
320.202	1.328	1.328	321.53	1	PA_without_intermediate	test	ward_and_allport	71	29.0	1.328	to_hand	poldrack-single-stim	s525	False
321.532	0.1	1.152	322.684	0	PA_without_intermediate	test	ward_and_allport	82	29.0	1.152	to_board	poldrack-single-stim	s525	False
322.69	0.1	0.826	323.516	0	PA_without_intermediate	test	ward_and_allport	71	29.0	0.826	to_hand	poldrack-single-stim	s525	False
323.518	0.1	0.523	324.041	0	PA_without_intermediate	test	ward_and_allport	89	29.0	0.523	to_board	poldrack-single-stim	s525	False
324.05	0.1	0.535	324.585	0	PA_without_intermediate	test	ward_and_allport	71	29.0	0.535	to_hand	poldrack-single-stim	s525	False
324.586	0.1	0.371	324.957	0	PA_without_intermediate	test	ward_and_allport	82	29.0	0.371	to_board	poldrack-single-stim	s525	False
324.968	1.0	2.408	324.967	0	PA_without_intermediate	test	ward_and_allport	-1	29.0	n/a	feedback	poldrack-single-stim	s525	False
332.386	2.328	2.328	334.714	1	PA_with_intermediate	test	ward_and_allport	89	30.0	2.328	to_hand	poldrack-single-stim	s525	False
334.715	0.1	0.538	335.253	0	PA_with_intermediate	test	ward_and_allport	82	30.0	0.538	to_board	poldrack-single-stim	s525	False
335.263	0.1	0.645	335.908	0	PA_with_intermediate	test	ward_and_allport	89	30.0	0.645	to_hand	poldrack-single-stim	s525	False
335.909	0.1	0.441	336.35	0	PA_with_intermediate	test	ward_and_allport	71	30.0	0.441	to_board	poldrack-single-stim	s525	False
336.359	0.1	1.382	337.741	0	PA_with_intermediate	test	ward_and_allport	82	30.0	1.382	to_hand	poldrack-single-stim	s525	False
337.743	0.1	0.232	337.975	0	PA_with_intermediate	test	ward_and_allport	71	30.0	0.232	to_board	poldrack-single-stim	s525	False
337.985	1.0	2.136	337.984	0	PA_with_intermediate	test	ward_and_allport	-1	30.0	n/a	feedback	poldrack-single-stim	s525	False
340.127	1.494	1.494	341.621	1	PA_without_intermediate	test	ward_and_allport	71	31.0	1.494	to_hand	poldrack-single-stim	s525	False
341.621	0.1	0.57	342.191	0	PA_without_intermediate	test	ward_and_allport	89	31.0	0.57	to_board	poldrack-single-stim	s525	False
342.198	0.1	0.683	342.881	0	PA_without_intermediate	test	ward_and_allport	71	31.0	0.683	to_hand	poldrack-single-stim	s525	False
342.881	0.1	0.346	343.227	0	PA_without_intermediate	test	ward_and_allport	82	31.0	0.346	to_board	poldrack-single-stim	s525	False
343.235	0.1	0.415	343.65	0	PA_without_intermediate	test	ward_and_allport	71	31.0	0.415	to_hand	poldrack-single-stim	s525	False
343.652	0.1	0.299	343.951	0	PA_without_intermediate	test	ward_and_allport	89	31.0	0.299	to_board	poldrack-single-stim	s525	False
343.96	1.0	5.128	343.959	0	PA_without_intermediate	test	ward_and_allport	-1	31.0	n/a	feedback	poldrack-single-stim	s525	False
349.098	0.865	0.865	349.963	1	PA_without_intermediate	test	ward_and_allport	71	32.0	0.865	to_hand	poldrack-single-stim	s525	False
349.964	0.1	0.379	350.343	0	PA_without_intermediate	test	ward_and_allport	82	32.0	0.379	to_board	poldrack-single-stim	s525	False
350.353	0.1	0.757	351.11	0	PA_without_intermediate	test	ward_and_allport	71	32.0	0.757	to_hand	poldrack-single-stim	s525	False
351.111	0.1	0.275	351.386	0	PA_without_intermediate	test	ward_and_allport	82	32.0	0.275	to_board	poldrack-single-stim	s525	False
351.395	0.1	1.009	352.404	0	PA_without_intermediate	test	ward_and_allport	71	32.0	1.009	to_hand	poldrack-single-stim	s525	False
352.404	0.1	0.253	352.657	0	PA_without_intermediate	test	ward_and_allport	89	32.0	0.253	to_board	poldrack-single-stim	s525	False
352.665	1.0	2.136	352.664	0	PA_without_intermediate	test	ward_and_allport	-1	32.0	n/a	feedback	poldrack-single-stim	s525	False
354.809	2.27	2.27	357.079	1	PA_without_intermediate	test	ward_and_allport	89	33.0	2.27	to_hand	poldrack-single-stim	s525	False
357.08	0.1	0.374	357.454	0	PA_without_intermediate	test	ward_and_allport	71	33.0	0.374	to_board	poldrack-single-stim	s525	False
357.459	0.1	0.877	358.336	0	PA_without_intermediate	test	ward_and_allport	89	33.0	0.877	to_hand	poldrack-single-stim	s525	False
358.337	0.1	0.34	358.677	0	PA_without_intermediate	test	ward_and_allport	71	33.0	0.34	to_board	poldrack-single-stim	s525	False
358.685	0.1	0.71	359.395	0	PA_without_intermediate	test	ward_and_allport	89	33.0	0.71	to_hand	poldrack-single-stim	s525	False
359.395	0.1	0.566	359.961	0	PA_without_intermediate	test	ward_and_allport	82	33.0	0.566	to_board	poldrack-single-stim	s525	False
359.972	1.0	5.264	359.971	0	PA_without_intermediate	test	ward_and_allport	-1	33.0	n/a	feedback	poldrack-single-stim	s525	False
365.246	1.943	1.943	367.189	1	PA_with_intermediate	test	ward_and_allport	82	34.0	1.943	to_hand	poldrack-single-stim	s525	False
367.189	0.1	1.1	368.289	0	PA_with_intermediate	test	ward_and_allport	71	34.0	1.1	to_board	poldrack-single-stim	s525	False
368.298	0.1	0.645	368.943	0	PA_with_intermediate	test	ward_and_allport	82	34.0	0.645	to_hand	poldrack-single-stim	s525	False
368.945	0.1	0.537	369.482	0	PA_with_intermediate	test	ward_and_allport	89	34.0	0.537	to_board	poldrack-single-stim	s525	False
369.49	0.1	0.528	370.018	0	PA_with_intermediate	test	ward_and_allport	71	34.0	0.528	to_hand	poldrack-single-stim	s525	False
370.02	0.1	0.37	370.39	0	PA_with_intermediate	test	ward_and_allport	82	34.0	0.37	to_board	poldrack-single-stim	s525	False
370.4	1.0	4.04	370.399	0	PA_with_intermediate	test	ward_and_allport	-1	34.0	n/a	feedback	poldrack-single-stim	s525	False
374.45	0.609	0.609	375.059	1	PA_with_intermediate	test	ward_and_allport	71	35.0	0.609	to_hand	poldrack-single-stim	s525	False
375.06	0.1	2.205	377.265	0	PA_with_intermediate	test	ward_and_allport	89	35.0	2.205	to_board	poldrack-single-stim	s525	False
377.272	0.1	0.929	378.201	0	PA_with_intermediate	test	ward_and_allport	71	35.0	0.929	to_hand	poldrack-single-stim	s525	False
378.202	0.1	0.345	378.547	0	PA_with_intermediate	test	ward_and_allport	82	35.0	0.345	to_board	poldrack-single-stim	s525	False
378.554	0.1	1.157	379.711	0	PA_with_intermediate	test	ward_and_allport	89	35.0	1.157	to_hand	poldrack-single-stim	s525	False
379.713	0.1	0.431	380.144	0	PA_with_intermediate	test	ward_and_allport	82	35.0	0.431	to_board	poldrack-single-stim	s525	False
380.154	1.0	2.136	380.153	0	PA_with_intermediate	test	ward_and_allport	-1	35.0	n/a	feedback	poldrack-single-stim	s525	False
382.298	0.977	0.977	383.275	1	PA_with_intermediate	test	ward_and_allport	71	36.0	0.977	to_hand	poldrack-single-stim	s525	False
383.277	0.1	0.539	383.816	0	PA_with_intermediate	test	ward_and_allport	82	36.0	0.539	to_board	poldrack-single-stim	s525	False
383.826	0.1	0.94	384.766	0	PA_with_intermediate	test	ward_and_allport	71	36.0	0.94	to_hand	poldrack-single-stim	s525	False
384.767	0.1	0.614	385.381	0	PA_with_intermediate	test	ward_and_allport	71	36.0	0.614	to_board	poldrack-single-stim	s525	False
385.389	0.1	0.447	385.836	0	PA_with_intermediate	test	ward_and_allport	82	36.0	0.447	to_hand	poldrack-single-stim	s525	False
385.837	0.1	0.508	386.345	0	PA_with_intermediate	test	ward_and_allport	89	36.0	0.508	to_board	poldrack-single-stim	s525	False
386.351	0.1	0.756	387.107	0	PA_with_intermediate	test	ward_and_allport	71	36.0	0.756	to_hand	poldrack-single-stim	s525	False
387.107	0.1	0.375	387.482	0	PA_with_intermediate	test	ward_and_allport	89	36.0	0.375	to_board	poldrack-single-stim	s525	False
387.49	0.1	0.743	388.233	0	PA_with_intermediate	test	ward_and_allport	71	36.0	0.743	to_hand	poldrack-single-stim	s525	False
388.233	0.1	0.554	388.787	0	PA_with_intermediate	test	ward_and_allport	71	36.0	0.554	to_board	poldrack-single-stim	s525	False
388.794	0.1	0.438	389.232	0	PA_with_intermediate	test	ward_and_allport	89	36.0	0.438	to_hand	poldrack-single-stim	s525	False
389.232	0.1	0.456	389.688	0	PA_with_intermediate	test	ward_and_allport	71	36.0	0.456	to_board	poldrack-single-stim	s525	False
389.695	0.1	0.5	390.195	0	PA_with_intermediate	test	ward_and_allport	89	36.0	0.5	to_hand	poldrack-single-stim	s525	False
390.195	0.1	0.428	390.623	0	PA_with_intermediate	test	ward_and_allport	71	36.0	0.428	to_board	poldrack-single-stim	s525	False
390.631	0.1	1.135	391.766	0	PA_with_intermediate	test	ward_and_allport	71	36.0	1.135	to_hand	poldrack-single-stim	s525	False
391.766	0.1	0.568	392.334	0	PA_with_intermediate	test	ward_and_allport	82	36.0	0.568	to_board	poldrack-single-stim	s525	False
392.341	0.1	0.493	392.834	0	PA_with_intermediate	test	ward_and_allport	71	36.0	0.493	to_hand	poldrack-single-stim	s525	False
392.835	0.1	0.441	393.276	0	PA_with_intermediate	test	ward_and_allport	89	36.0	0.441	to_board	poldrack-single-stim	s525	False
393.283	0.1	1.968	395.251	0	PA_with_intermediate	test	ward_and_allport	82	36.0	1.968	to_hand	poldrack-single-stim	s525	False
395.253	0.1	0.517	395.77	0	PA_with_intermediate	test	ward_and_allport	89	36.0	0.517	to_board	poldrack-single-stim	s525	False
395.778	1.0	2.408	395.777	0	PA_with_intermediate	test	ward_and_allport	-1	36.0	n/a	feedback	poldrack-single-stim	s525	False
398.193	3.035	3.035	401.228	1	PA_without_intermediate	test	ward_and_allport	82	37.0	3.035	to_hand	poldrack-single-stim	s525	False
401.229	0.1	0.381	401.61	0	PA_without_intermediate	test	ward_and_allport	89	37.0	0.381	to_board	poldrack-single-stim	s525	False
401.617	0.1	0.9	402.517	0	PA_without_intermediate	test	ward_and_allport	82	37.0	0.9	to_hand	poldrack-single-stim	s525	False
402.518	0.1	1.077	403.595	0	PA_without_intermediate	test	ward_and_allport	71	37.0	1.077	to_board	poldrack-single-stim	s525	False
403.606	0.1	0.539	404.145	0	PA_without_intermediate	test	ward_and_allport	82	37.0	0.539	to_hand	poldrack-single-stim	s525	False
404.145	0.1	0.518	404.663	0	PA_without_intermediate	test	ward_and_allport	89	37.0	0.518	to_board	poldrack-single-stim	s525	False
404.675	1.0	2.68	404.674	0	PA_without_intermediate	test	ward_and_allport	-1	37.0	n/a	feedback	poldrack-single-stim	s525	False
407.364	1.084	1.084	408.448	1	PA_with_intermediate	test	ward_and_allport	71	38.0	1.084	to_hand	poldrack-single-stim	s525	False
408.449	0.1	0.561	409.01	0	PA_with_intermediate	test	ward_and_allport	82	38.0	0.561	to_board	poldrack-single-stim	s525	False
409.017	0.1	0.676	409.693	0	PA_with_intermediate	test	ward_and_allport	71	38.0	0.676	to_hand	poldrack-single-stim	s525	False
409.693	0.1	0.377	410.07	0	PA_with_intermediate	test	ward_and_allport	89	38.0	0.377	to_board	poldrack-single-stim	s525	False
410.079	0.1	0.785	410.864	0	PA_with_intermediate	test	ward_and_allport	82	38.0	0.785	to_hand	poldrack-single-stim	s525	False
410.864	0.1	0.375	411.239	0	PA_with_intermediate	test	ward_and_allport	71	38.0	0.375	to_board	poldrack-single-stim	s525	False
411.248	1.0	4.72	411.247	0	PA_with_intermediate	test	ward_and_allport	-1	38.0	n/a	feedback	poldrack-single-stim	s525	False
415.977	2.783	2.783	418.76	1	PA_without_intermediate	test	ward_and_allport	82	39.0	2.783	to_hand	poldrack-single-stim	s525	False
418.761	0.1	0.5	419.261	0	PA_without_intermediate	test	ward_and_allport	89	39.0	0.5	to_board	poldrack-single-stim	s525	False
419.27	0.1	0.899	420.169	0	PA_without_intermediate	test	ward_and_allport	82	39.0	0.899	to_hand	poldrack-single-stim	s525	False
420.171	0.1	0.405	420.576	0	PA_without_intermediate	test	ward_and_allport	89	39.0	0.405	to_board	poldrack-single-stim	s525	False
420.587	0.1	1.059	421.646	0	PA_without_intermediate	test	ward_and_allport	82	39.0	1.059	to_hand	poldrack-single-stim	s525	False
421.648	0.1	0.433	422.081	0	PA_without_intermediate	test	ward_and_allport	71	39.0	0.433	to_board	poldrack-single-stim	s525	False
422.092	1.0	3.224	422.091	0	PA_without_intermediate	test	ward_and_allport	-1	39.0	n/a	feedback	poldrack-single-stim	s525	False
425.324	2.222	2.222	427.546	1	PA_without_intermediate	test	ward_and_allport	89	40.0	2.222	to_hand	poldrack-single-stim	s525	False
427.547	0.1	0.793	428.34	0	PA_without_intermediate	test	ward_and_allport	71	40.0	0.793	to_board	poldrack-single-stim	s525	False
428.348	0.1	0.546	428.894	0	PA_without_intermediate	test	ward_and_allport	89	40.0	0.546	to_hand	poldrack-single-stim	s525	False
428.895	0.1	0.559	429.454	0	PA_without_intermediate	test	ward_and_allport	82	40.0	0.559	to_board	poldrack-single-stim	s525	False
429.465	0.1	0.508	429.973	0	PA_without_intermediate	test	ward_and_allport	89	40.0	0.508	to_hand	poldrack-single-stim	s525	False
429.973	0.1	0.353	430.326	0	PA_without_intermediate	test	ward_and_allport	71	40.0	0.353	to_board	poldrack-single-stim	s525	False
430.34	1.0	2.272	430.339	0	PA_without_intermediate	test	ward_and_allport	-1	40.0	n/a	feedback	poldrack-single-stim	s525	False
432.62	2.246	2.246	434.866	1	PA_with_intermediate	test	ward_and_allport	82	41.0	2.246	to_hand	poldrack-single-stim	s525	False
434.867	0.1	0.661	435.528	0	PA_with_intermediate	test	ward_and_allport	71	41.0	0.661	to_board	poldrack-single-stim	s525	False
435.536	0.1	0.684	436.22	0	PA_with_intermediate	test	ward_and_allport	82	41.0	0.684	to_hand	poldrack-single-stim	s525	False
436.222	0.1	0.613	436.835	0	PA_with_intermediate	test	ward_and_allport	89	41.0	0.613	to_board	poldrack-single-stim	s525	False
436.85	0.1	0.444	437.294	0	PA_with_intermediate	test	ward_and_allport	71	41.0	0.444	to_hand	poldrack-single-stim	s525	False
437.296	0.1	0.297	437.593	0	PA_with_intermediate	test	ward_and_allport	82	41.0	0.297	to_board	poldrack-single-stim	s525	False
437.604	1.0	3.632	437.603	0	PA_with_intermediate	test	ward_and_allport	-1	41.0	n/a	feedback	poldrack-single-stim	s525	False
441.249	1.575	1.575	442.824	1	PA_without_intermediate	test	ward_and_allport	89	42.0	1.575	to_hand	poldrack-single-stim	s525	False
442.824	0.1	0.556	443.38	0	PA_without_intermediate	test	ward_and_allport	82	42.0	0.556	to_board	poldrack-single-stim	s525	False
443.391	0.1	0.766	444.157	0	PA_without_intermediate	test	ward_and_allport	89	42.0	0.766	to_hand	poldrack-single-stim	s525	False
444.158	0.1	0.362	444.52	0	PA_without_intermediate	test	ward_and_allport	82	42.0	0.362	to_board	poldrack-single-stim	s525	False
444.53	0.1	1.25	445.78	0	PA_without_intermediate	test	ward_and_allport	89	42.0	1.25	to_hand	poldrack-single-stim	s525	False
445.78	0.1	0.278	446.058	0	PA_without_intermediate	test	ward_and_allport	71	42.0	0.278	to_board	poldrack-single-stim	s525	False
446.072	1.0	2.408	446.071	0	PA_without_intermediate	test	ward_and_allport	-1	42.0	n/a	feedback	poldrack-single-stim	s525	False
448.49	1.949	1.949	450.439	1	PA_without_intermediate	test	ward_and_allport	89	43.0	1.949	to_hand	poldrack-single-stim	s525	False
450.44	0.1	0.349	450.789	0	PA_without_intermediate	test	ward_and_allport	82	43.0	0.349	to_board	poldrack-single-stim	s525	False
450.8	0.1	2.261	453.061	0	PA_without_intermediate	test	ward_and_allport	89	43.0	2.261	to_hand	poldrack-single-stim	s525	False
453.061	0.1	0.703	453.764	0	PA_without_intermediate	test	ward_and_allport	71	43.0	0.703	to_board	poldrack-single-stim	s525	False
453.773	0.1	0.441	454.214	0	PA_without_intermediate	test	ward_and_allport	89	43.0	0.441	to_hand	poldrack-single-stim	s525	False
454.215	0.1	0.473	454.688	0	PA_without_intermediate	test	ward_and_allport	82	43.0	0.473	to_board	poldrack-single-stim	s525	False
454.697	1.0	2.0	454.696	0	PA_without_intermediate	test	ward_and_allport	-1	43.0	n/a	feedback	poldrack-single-stim	s525	False
456.705	0.85	0.85	457.555	1	PA_with_intermediate	test	ward_and_allport	89	44.0	0.85	to_hand	poldrack-single-stim	s525	False
457.556	0.1	1.497	459.053	0	PA_with_intermediate	test	ward_and_allport	82	44.0	1.497	to_board	poldrack-single-stim	s525	False
459.062	0.1	0.553	459.615	0	PA_with_intermediate	test	ward_and_allport	89	44.0	0.553	to_hand	poldrack-single-stim	s525	False
459.615	0.1	0.361	459.976	0	PA_with_intermediate	test	ward_and_allport	71	44.0	0.361	to_board	poldrack-single-stim	s525	False
459.984	0.1	0.721	460.705	0	PA_with_intermediate	test	ward_and_allport	82	44.0	0.721	to_hand	poldrack-single-stim	s525	False
460.706	0.1	0.685	461.391	0	PA_with_intermediate	test	ward_and_allport	89	44.0	0.685	to_board	poldrack-single-stim	s525	False
461.401	1.0	2.0	461.4	0	PA_with_intermediate	test	ward_and_allport	-1	44.0	n/a	feedback	poldrack-single-stim	s525	False
468.416	0.98	0.98	469.396	1	PA_with_intermediate	test	ward_and_allport	82	45.0	0.98	to_hand	poldrack-single-stim	s525	False
469.397	0.1	1.497	470.894	0	PA_with_intermediate	test	ward_and_allport	89	45.0	1.497	to_board	poldrack-single-stim	s525	False
470.907	0.1	0.795	471.702	0	PA_with_intermediate	test	ward_and_allport	82	45.0	0.795	to_hand	poldrack-single-stim	s525	False
471.703	0.1	0.246	471.949	0	PA_with_intermediate	test	ward_and_allport	71	45.0	0.246	to_board	poldrack-single-stim	s525	False
471.961	0.1	0.416	472.377	0	PA_with_intermediate	test	ward_and_allport	89	45.0	0.416	to_hand	poldrack-single-stim	s525	False
472.378	0.1	0.3	472.678	0	PA_with_intermediate	test	ward_and_allport	71	45.0	0.3	to_board	poldrack-single-stim	s525	False
472.689	1.0	2.0	472.688	0	PA_with_intermediate	test	ward_and_allport	-1	45.0	n/a	feedback	poldrack-single-stim	s525	False
474.699	2.174	2.174	476.873	1	PA_with_intermediate	test	ward_and_allport	89	46.0	2.174	to_hand	poldrack-single-stim	s525	False
476.873	0.1	0.41	477.283	0	PA_with_intermediate	test	ward_and_allport	71	46.0	0.41	to_board	poldrack-single-stim	s525	False
477.292	0.1	0.356	477.648	0	PA_with_intermediate	test	ward_and_allport	89	46.0	0.356	to_hand	poldrack-single-stim	s525	False
477.649	0.1	0.437	478.086	0	PA_with_intermediate	test	ward_and_allport	82	46.0	0.437	to_board	poldrack-single-stim	s525	False
478.096	0.1	0.597	478.693	0	PA_with_intermediate	test	ward_and_allport	71	46.0	0.597	to_hand	poldrack-single-stim	s525	False
478.694	0.1	0.316	479.01	0	PA_with_intermediate	test	ward_and_allport	89	46.0	0.316	to_board	poldrack-single-stim	s525	False
479.022	1.0	2.408	479.021	0	PA_with_intermediate	test	ward_and_allport	-1	46.0	n/a	feedback	poldrack-single-stim	s525	False
481.438	1.2	1.2	482.638	1	PA_without_intermediate	test	ward_and_allport	71	47.0	1.2	to_hand	poldrack-single-stim	s525	False
482.639	0.1	0.885	483.524	0	PA_without_intermediate	test	ward_and_allport	89	47.0	0.885	to_board	poldrack-single-stim	s525	False
483.533	0.1	0.334	483.867	0	PA_without_intermediate	test	ward_and_allport	71	47.0	0.334	to_hand	poldrack-single-stim	s525	False
483.869	0.1	0.546	484.415	0	PA_without_intermediate	test	ward_and_allport	89	47.0	0.546	to_board	poldrack-single-stim	s525	False
484.422	0.1	0.424	484.846	0	PA_without_intermediate	test	ward_and_allport	71	47.0	0.424	to_hand	poldrack-single-stim	s525	False
484.847	0.1	0.311	485.158	0	PA_without_intermediate	test	ward_and_allport	82	47.0	0.311	to_board	poldrack-single-stim	s525	False
485.167	1.0	2.816	485.166	0	PA_without_intermediate	test	ward_and_allport	-1	47.0	n/a	feedback	poldrack-single-stim	s525	False
