onset	duration	movement_onset	block_duration	condition	correct	correct_response	experiment_exp_id	key_press	response_time	trial_id	trial_type	worker_id	junk
4.517	1.5	5.897	1.636	BY	1.0	71.0	dot_pattern_expectancy	71.0	0.38	probe	BY	s495	False
8.661	1.5	10.303	1.5	AY	0.0	71.0	dot_pattern_expectancy	89.0	0.642	probe	AY	s495	False
12.67	1.5	14.289	2.044	AX	1.0	89.0	dot_pattern_expectancy	89.0	0.619	probe	AX	s495	False
17.224	1.5	18.589	1.772	BY	1.0	71.0	dot_pattern_expectancy	71.0	0.365	probe	BY	s495	False
21.506	1.5	22.874	1.636	BX	1.0	71.0	dot_pattern_expectancy	71.0	0.368	probe	BX	s495	False
25.653	1.5	27.242	1.636	AX	1.0	89.0	dot_pattern_expectancy	89.0	0.589	probe	AX	s495	False
29.797	1.5	31.295	1.5	AX	1.0	89.0	dot_pattern_expectancy	89.0	0.498	probe	AX	s495	False
33.808	1.5	35.48	1.5	AX	1.0	89.0	dot_pattern_expectancy	89.0	0.672	probe	AX	s495	False
37.818	1.5	39.306	2.044	AY	1.0	71.0	dot_pattern_expectancy	71.0	0.488	probe	AY	s495	False
42.374	1.5	43.874	2.452	AX	1.0	89.0	dot_pattern_expectancy	89.0	0.5	probe	AX	s495	False
47.337	1.5	48.906	1.908	AX	1.0	89.0	dot_pattern_expectancy	89.0	0.569	probe	AX	s495	False
51.754	1.5	53.24	1.5	AX	1.0	89.0	dot_pattern_expectancy	89.0	0.486	probe	AX	s495	False
55.763	1.5	57.34	1.908	AX	1.0	89.0	dot_pattern_expectancy	89.0	0.577	probe	AX	s495	False
60.183	1.5	61.509	2.18	BX	1.0	71.0	dot_pattern_expectancy	71.0	0.326	probe	BX	s495	False
64.872	1.5	66.268	1.5	AX	1.0	89.0	dot_pattern_expectancy	89.0	0.396	probe	AX	s495	False
68.884	1.5	70.215	1.908	BY	1.0	71.0	dot_pattern_expectancy	71.0	0.331	probe	BY	s495	False
73.303	1.5	74.624	2.316	BX	1.0	71.0	dot_pattern_expectancy	71.0	0.321	probe	BX	s495	False
78.13	1.5	79.677	2.316	AY	1.0	71.0	dot_pattern_expectancy	71.0	0.547	probe	AY	s495	False
82.955	1.5	84.284	1.636	BX	1.0	71.0	dot_pattern_expectancy	71.0	0.329	probe	BX	s495	False
87.101	1.5	88.601	1.5	AY	1.0	71.0	dot_pattern_expectancy	71.0	0.5	probe	AY	s495	False
91.112	1.5	92.532	1.908	BY	1.0	71.0	dot_pattern_expectancy	71.0	0.42	probe	BY	s495	False
95.528	1.5	97.02	1.5	AX	1.0	89.0	dot_pattern_expectancy	89.0	0.492	probe	AX	s495	False
99.541	1.5	101.247	2.316	AY	1.0	71.0	dot_pattern_expectancy	71.0	0.706	probe	AY	s495	False
104.366	1.5	105.829	1.5	AX	1.0	89.0	dot_pattern_expectancy	89.0	0.463	probe	AX	s495	False
108.376	1.5	109.949	2.724	AY	1.0	71.0	dot_pattern_expectancy	71.0	0.573	probe	AY	s495	False
113.61	1.5	115.405	1.5	AX	1.0	89.0	dot_pattern_expectancy	89.0	0.795	probe	AX	s495	False
117.623	1.5	119.184	1.636	AX	1.0	89.0	dot_pattern_expectancy	89.0	0.561	probe	AX	s495	False
121.77	1.5	123.258	1.636	AX	1.0	89.0	dot_pattern_expectancy	89.0	0.488	probe	AX	s495	False
125.915	1.5	127.507	1.772	AX	1.0	89.0	dot_pattern_expectancy	89.0	0.592	probe	AX	s495	False
130.197	1.5	131.544	1.772	BY	1.0	71.0	dot_pattern_expectancy	71.0	0.347	probe	BY	s495	False
134.479	1.5	136.141	1.5	AX	1.0	89.0	dot_pattern_expectancy	89.0	0.662	probe	AX	s495	False
138.492	1.5	139.857	2.452	BY	1.0	71.0	dot_pattern_expectancy	71.0	0.365	probe	BY	s495	False
143.455	1.5	145.014	1.636	AX	1.0	89.0	dot_pattern_expectancy	89.0	0.559	probe	AX	s495	False
147.602	1.5	149.073	1.636	AX	1.0	89.0	dot_pattern_expectancy	89.0	0.471	probe	AX	s495	False
151.745	1.5	153.105	1.5	BX	1.0	71.0	dot_pattern_expectancy	71.0	0.36	probe	BX	s495	False
155.756	1.5	157.09	1.5	BX	1.0	71.0	dot_pattern_expectancy	71.0	0.334	probe	BX	s495	False
159.765	1.5	161.282	2.316	AX	1.0	89.0	dot_pattern_expectancy	89.0	0.517	probe	AX	s495	False
164.591	1.5	166.233	2.044	AY	1.0	71.0	dot_pattern_expectancy	71.0	0.642	probe	AY	s495	False
169.143	1.5	170.705	3.948	AX	1.0	89.0	dot_pattern_expectancy	89.0	0.562	probe	AX	s495	False
175.601	1.5	177.109	1.636	AX	1.0	89.0	dot_pattern_expectancy	89.0	0.508	probe	AX	s495	False
190.253	1.5	191.816	1.636	AY	1.0	71.0	dot_pattern_expectancy	71.0	0.563	probe	AY	s495	False
194.4	1.5	195.915	1.636	AX	1.0	89.0	dot_pattern_expectancy	89.0	0.515	probe	AX	s495	False
198.546	1.5	199.992	1.5	AX	1.0	89.0	dot_pattern_expectancy	89.0	0.446	probe	AX	s495	False
202.555	1.5	204.124	1.5	AX	1.0	89.0	dot_pattern_expectancy	89.0	0.569	probe	AX	s495	False
206.566	1.5	208.422	1.908	AX	1.0	89.0	dot_pattern_expectancy	89.0	0.856	probe	AX	s495	False
210.985	1.5	212.35	1.636	BX	1.0	71.0	dot_pattern_expectancy	71.0	0.365	probe	BX	s495	False
215.129	1.5	216.605	2.044	AX	1.0	89.0	dot_pattern_expectancy	89.0	0.476	probe	AX	s495	False
219.682	1.5	221.154	1.772	AX	1.0	89.0	dot_pattern_expectancy	89.0	0.472	probe	AX	s495	False
223.963	1.5	225.416	1.5	AX	1.0	89.0	dot_pattern_expectancy	89.0	0.453	probe	AX	s495	False
227.972	1.5	229.51	2.18	AX	1.0	89.0	dot_pattern_expectancy	89.0	0.538	probe	AX	s495	False
232.662	1.5	234.111	1.5	AX	1.0	89.0	dot_pattern_expectancy	89.0	0.449	probe	AX	s495	False
236.672	1.5	238.013	3.676	BX	1.0	71.0	dot_pattern_expectancy	71.0	0.341	probe	BX	s495	False
242.857	1.5	244.327	1.636	BY	1.0	71.0	dot_pattern_expectancy	71.0	0.47	probe	BY	s495	False
247.005	1.5	248.338	1.636	BY	1.0	71.0	dot_pattern_expectancy	71.0	0.333	probe	BY	s495	False
251.152	1.5	252.567	1.5	BX	1.0	71.0	dot_pattern_expectancy	71.0	0.415	probe	BX	s495	False
255.162	1.5	256.614	1.908	AX	1.0	89.0	dot_pattern_expectancy	89.0	0.452	probe	AX	s495	False
259.583	1.5	261.122	1.636	AX	1.0	89.0	dot_pattern_expectancy	89.0	0.539	probe	AX	s495	False
263.73	1.5	265.088	1.5	BX	1.0	71.0	dot_pattern_expectancy	71.0	0.358	probe	BX	s495	False
267.74	1.5	269.472	1.908	AX	1.0	89.0	dot_pattern_expectancy	89.0	0.732	probe	AX	s495	False
272.156	1.5	273.573	2.18	BY	1.0	71.0	dot_pattern_expectancy	71.0	0.417	probe	BY	s495	False
276.848	1.5	278.326	1.772	AX	1.0	89.0	dot_pattern_expectancy	89.0	0.478	probe	AX	s495	False
281.131	1.5	282.604	1.5	AX	1.0	89.0	dot_pattern_expectancy	89.0	0.473	probe	AX	s495	False
285.142	1.5	286.758	1.5	AX	1.0	89.0	dot_pattern_expectancy	89.0	0.616	probe	AX	s495	False
289.15	1.5	290.728	2.044	AX	1.0	89.0	dot_pattern_expectancy	89.0	0.578	probe	AX	s495	False
293.704	1.5	295.24	2.86	AX	1.0	89.0	dot_pattern_expectancy	89.0	0.536	probe	AX	s495	False
299.076	1.5	300.425	1.5	BX	1.0	71.0	dot_pattern_expectancy	71.0	0.349	probe	BX	s495	False
303.084	1.5	304.464	1.772	BY	1.0	71.0	dot_pattern_expectancy	71.0	0.38	probe	BY	s495	False
307.366	1.5	308.837	1.772	AX	1.0	89.0	dot_pattern_expectancy	89.0	0.471	probe	AX	s495	False
311.648	1.5	313.224	2.86	AX	1.0	89.0	dot_pattern_expectancy	89.0	0.576	probe	AX	s495	False
317.019	1.5	318.477	1.772	AX	1.0	89.0	dot_pattern_expectancy	89.0	0.458	probe	AX	s495	False
321.301	1.5	322.861	1.636	BX	1.0	71.0	dot_pattern_expectancy	71.0	0.56	probe	BX	s495	False
325.444	1.5	327.155	2.452	BX	1.0	71.0	dot_pattern_expectancy	71.0	0.711	probe	BX	s495	False
330.407	1.5	331.86	1.636	AX	1.0	89.0	dot_pattern_expectancy	89.0	0.453	probe	AX	s495	False
334.556	1.5	335.956	1.5	BX	1.0	71.0	dot_pattern_expectancy	71.0	0.4	probe	BX	s495	False
338.565	1.5	340.113	1.636	AX	1.0	89.0	dot_pattern_expectancy	89.0	0.548	probe	AX	s495	False
342.71	1.5	344.304	1.636	AX	1.0	89.0	dot_pattern_expectancy	89.0	0.594	probe	AX	s495	False
346.855	1.5	348.145	2.18	BY	1.0	71.0	dot_pattern_expectancy	71.0	0.29	probe	BY	s495	False
351.545	1.5	353.024	1.5	AX	1.0	89.0	dot_pattern_expectancy	89.0	0.479	probe	AX	s495	False
355.555	1.5	357.12	1.636	AY	1.0	71.0	dot_pattern_expectancy	71.0	0.565	probe	AY	s495	False
359.699	1.5	361.299	1.636	AX	1.0	89.0	dot_pattern_expectancy	89.0	0.6	probe	AX	s495	False
374.365	1.5	375.844	2.18	AX	1.0	89.0	dot_pattern_expectancy	89.0	0.479	probe	AX	s495	False
379.058	1.5	380.639	2.316	AY	1.0	71.0	dot_pattern_expectancy	71.0	0.581	probe	AY	s495	False
383.885	1.5	385.491	1.636	AY	1.0	71.0	dot_pattern_expectancy	71.0	0.606	probe	AY	s495	False
388.031	1.5	389.399	1.908	BX	1.0	71.0	dot_pattern_expectancy	71.0	0.368	probe	BX	s495	False
392.448	1.5	394.047	3.54	AX	1.0	89.0	dot_pattern_expectancy	89.0	0.599	probe	AX	s495	False
398.499	1.5	399.863	1.636	BX	1.0	71.0	dot_pattern_expectancy	71.0	0.364	probe	BX	s495	False
402.643	1.5	404.004	1.5	BY	1.0	71.0	dot_pattern_expectancy	71.0	0.361	probe	BY	s495	False
406.655	1.5	408.202	1.5	AX	1.0	89.0	dot_pattern_expectancy	89.0	0.547	probe	AX	s495	False
410.666	1.5	412.116	1.772	AX	1.0	89.0	dot_pattern_expectancy	89.0	0.45	probe	AX	s495	False
414.945	1.5	416.401	2.452	BY	1.0	71.0	dot_pattern_expectancy	71.0	0.456	probe	BY	s495	False
419.906	1.5	421.575	1.908	AX	1.0	89.0	dot_pattern_expectancy	89.0	0.669	probe	AX	s495	False
424.324	1.5	425.712	1.636	BX	1.0	71.0	dot_pattern_expectancy	71.0	0.388	probe	BX	s495	False
428.468	1.5	430.123	1.5	AX	1.0	89.0	dot_pattern_expectancy	89.0	0.655	probe	AX	s495	False
432.479	1.5	434.027	1.636	AX	1.0	89.0	dot_pattern_expectancy	89.0	0.548	probe	AX	s495	False
436.627	1.5	438.178	1.636	AX	1.0	89.0	dot_pattern_expectancy	89.0	0.551	probe	AX	s495	False
440.775	1.5	442.14	2.452	BY	1.0	71.0	dot_pattern_expectancy	71.0	0.365	probe	BY	s495	False
445.737	1.5	447.232	1.5	AX	1.0	89.0	dot_pattern_expectancy	89.0	0.495	probe	AX	s495	False
449.747	1.5	451.076	1.5	BY	1.0	71.0	dot_pattern_expectancy	71.0	0.329	probe	BY	s495	False
453.757	1.5	455.227	1.636	AX	1.0	89.0	dot_pattern_expectancy	89.0	0.47	probe	AX	s495	False
457.905	1.5	459.356	1.636	AX	1.0	89.0	dot_pattern_expectancy	89.0	0.451	probe	AX	s495	False
462.05	1.5	463.715	1.636	AY	1.0	71.0	dot_pattern_expectancy	71.0	0.665	probe	AY	s495	False
466.196	1.5	467.633	1.5	AX	1.0	89.0	dot_pattern_expectancy	89.0	0.437	probe	AX	s495	False
470.205	1.5	471.677	1.5	AX	1.0	89.0	dot_pattern_expectancy	89.0	0.472	probe	AX	s495	False
474.215	1.5	475.903	1.772	AX	1.0	89.0	dot_pattern_expectancy	89.0	0.688	probe	AX	s495	False
478.497	1.5	480.081	2.18	AX	1.0	89.0	dot_pattern_expectancy	89.0	0.584	probe	AX	s495	False
483.187	1.5	484.641	1.772	BX	1.0	71.0	dot_pattern_expectancy	71.0	0.454	probe	BX	s495	False
487.469	1.5	489.033	1.5	BY	1.0	71.0	dot_pattern_expectancy	71.0	0.564	probe	BY	s495	False
491.48	1.5	493.065	1.5	AX	0.0	89.0	dot_pattern_expectancy	71.0	0.585	probe	AX	s495	False
495.492	1.5	496.932	1.636	AX	1.0	89.0	dot_pattern_expectancy	89.0	0.44	probe	AX	s495	False
499.638	1.5	501.162	2.18	AY	1.0	71.0	dot_pattern_expectancy	71.0	0.524	probe	AY	s495	False
504.329	1.5	505.898	2.316	AY	1.0	71.0	dot_pattern_expectancy	71.0	0.569	probe	AY	s495	False
509.156	1.5	510.532	1.636	BX	1.0	71.0	dot_pattern_expectancy	71.0	0.376	probe	BX	s495	False
513.303	1.5	514.634	2.18	BX	1.0	71.0	dot_pattern_expectancy	71.0	0.331	probe	BX	s495	False
517.992	1.5	519.578	2.044	AY	1.0	71.0	dot_pattern_expectancy	71.0	0.586	probe	AY	s495	False
522.546	1.5	524.181	1.772	AX	1.0	89.0	dot_pattern_expectancy	89.0	0.635	probe	AX	s495	False
526.829	1.5	528.242	1.5	AX	1.0	89.0	dot_pattern_expectancy	89.0	0.413	probe	AX	s495	False
530.84	1.5	532.339	2.18	AX	1.0	89.0	dot_pattern_expectancy	89.0	0.499	probe	AX	s495	False
535.534	1.5	537.214	2.452	AY	1.0	71.0	dot_pattern_expectancy	71.0	0.68	probe	AY	s495	False
540.494	1.5	541.959	1.636	AX	1.0	89.0	dot_pattern_expectancy	89.0	0.465	probe	AX	s495	False
544.643	1.5	546.297	1.908	AX	1.0	89.0	dot_pattern_expectancy	89.0	0.654	probe	AX	s495	False
559.574	1.5	560.977	1.772	AX	1.0	89.0	dot_pattern_expectancy	89.0	0.403	probe	AX	s495	False
563.856	1.5	565.394	1.5	AX	1.0	89.0	dot_pattern_expectancy	89.0	0.538	probe	AX	s495	False
567.867	1.5	569.308	2.452	AY	1.0	71.0	dot_pattern_expectancy	71.0	0.441	probe	AY	s495	False
572.829	1.5	574.352	1.772	AY	1.0	71.0	dot_pattern_expectancy	71.0	0.523	probe	AY	s495	False
577.109	1.5	578.505	1.908	AX	1.0	89.0	dot_pattern_expectancy	89.0	0.396	probe	AX	s495	False
581.527	1.5	583.011	1.908	AX	1.0	89.0	dot_pattern_expectancy	89.0	0.484	probe	AX	s495	False
585.943	1.5	587.549	2.588	AX	1.0	89.0	dot_pattern_expectancy	89.0	0.606	probe	AX	s495	False
591.04	1.5	592.59	1.5	AY	1.0	71.0	dot_pattern_expectancy	71.0	0.55	probe	AY	s495	False
595.051	1.5	596.407	1.5	BY	1.0	71.0	dot_pattern_expectancy	71.0	0.356	probe	BY	s495	False
599.062	1.5	600.574	1.5	BY	1.0	71.0	dot_pattern_expectancy	71.0	0.512	probe	BY	s495	False
603.073	1.5	604.492	1.636	AX	1.0	89.0	dot_pattern_expectancy	89.0	0.419	probe	AX	s495	False
607.219	1.5	608.567	2.044	BX	1.0	71.0	dot_pattern_expectancy	71.0	0.348	probe	BX	s495	False
611.773	1.5	613.222	1.772	AX	1.0	89.0	dot_pattern_expectancy	89.0	0.449	probe	AX	s495	False
616.052	1.5	617.423	2.588	BX	1.0	71.0	dot_pattern_expectancy	71.0	0.371	probe	BX	s495	False
621.149	1.5	622.723	1.5	AY	1.0	71.0	dot_pattern_expectancy	71.0	0.574	probe	AY	s495	False
625.155	1.5	626.833	2.452	AX	1.0	89.0	dot_pattern_expectancy	89.0	0.678	probe	AX	s495	False
630.116	1.5	631.614	1.636	BY	1.0	71.0	dot_pattern_expectancy	71.0	0.498	probe	BY	s495	False
634.261	1.5	635.681	1.636	AX	1.0	89.0	dot_pattern_expectancy	89.0	0.42	probe	AX	s495	False
638.405	1.5	639.83	1.5	AX	1.0	89.0	dot_pattern_expectancy	89.0	0.425	probe	AX	s495	False
642.415	1.5	643.951	1.636	BY	1.0	71.0	dot_pattern_expectancy	71.0	0.536	probe	BY	s495	False
646.562	1.5	647.989	1.5	AX	1.0	89.0	dot_pattern_expectancy	89.0	0.427	probe	AX	s495	False
650.571	1.5	652.129	2.18	AY	1.0	71.0	dot_pattern_expectancy	71.0	0.558	probe	AY	s495	False
655.262	1.5	656.775	1.5	AX	0.0	89.0	dot_pattern_expectancy	71.0	0.513	probe	AX	s495	False
659.272	1.5	660.698	1.908	AX	1.0	89.0	dot_pattern_expectancy	89.0	0.426	probe	AX	s495	False
663.691	1.5	665.014	1.636	BY	1.0	71.0	dot_pattern_expectancy	71.0	0.323	probe	BY	s495	False
667.834	1.5	669.161	1.636	BY	1.0	71.0	dot_pattern_expectancy	71.0	0.327	probe	BY	s495	False
671.984	1.5	673.616	1.636	AX	1.0	89.0	dot_pattern_expectancy	89.0	0.632	probe	AX	s495	False
676.129	1.5	677.521	1.5	AX	1.0	89.0	dot_pattern_expectancy	89.0	0.392	probe	AX	s495	False
680.138	1.5	681.447	2.044	BY	1.0	71.0	dot_pattern_expectancy	71.0	0.309	probe	BY	s495	False
684.692	1.5	686.278	2.18	AY	1.0	71.0	dot_pattern_expectancy	71.0	0.586	probe	AY	s495	False
689.382	1.5	690.939	1.636	AY	1.0	71.0	dot_pattern_expectancy	71.0	0.557	probe	AY	s495	False
693.528	1.5	695.005	1.772	AY	1.0	71.0	dot_pattern_expectancy	71.0	0.477	probe	AY	s495	False
697.809	1.5	699.367	1.5	BY	1.0	71.0	dot_pattern_expectancy	71.0	0.558	probe	BY	s495	False
701.82	1.5	703.356	1.908	BX	1.0	71.0	dot_pattern_expectancy	71.0	0.536	probe	BX	s495	False
706.237	1.5	707.896	2.044	AX	1.0	89.0	dot_pattern_expectancy	89.0	0.659	probe	AX	s495	False
710.79	1.5	712.343	1.636	AX	1.0	89.0	dot_pattern_expectancy	89.0	0.553	probe	AX	s495	False
714.936	1.5	716.379	1.772	AX	1.0	89.0	dot_pattern_expectancy	89.0	0.443	probe	AX	s495	False
719.219	1.5	720.645	1.636	AX	1.0	89.0	dot_pattern_expectancy	89.0	0.426	probe	AX	s495	False
723.368	1.5	724.751	1.772	BX	1.0	71.0	dot_pattern_expectancy	71.0	0.383	probe	BX	s495	False
727.648	1.5	729.073	1.5	AX	1.0	89.0	dot_pattern_expectancy	89.0	0.425	probe	AX	s495	False
