onset	duration	block_duration	movement_onset	planning	condition	exp_stage	experiment_exp_id	key_press	problem_id	response_time	trial_id	trial_type	worker_id	junk
3.011	6.995	6.995	10.006	1	UA_with_intermediate	practice	ward_and_allport	71	0.0	6.995	to_hand	poldrack-single-stim	s622	False
10.006	0.1	0.718	10.724	0	UA_with_intermediate	practice	ward_and_allport	82	0.0	0.718	to_board	poldrack-single-stim	s622	False
10.726	0.1	0.483	11.209	0	UA_with_intermediate	practice	ward_and_allport	71	0.0	0.483	to_hand	poldrack-single-stim	s622	False
11.211	0.1	0.384	11.595	0	UA_with_intermediate	practice	ward_and_allport	89	0.0	0.384	to_board	poldrack-single-stim	s622	False
11.595	0.1	0.526	12.121	0	UA_with_intermediate	practice	ward_and_allport	82	0.0	0.526	to_hand	poldrack-single-stim	s622	False
12.123	0.1	0.325	12.448	0	UA_with_intermediate	practice	ward_and_allport	89	0.0	0.325	to_board	poldrack-single-stim	s622	False
12.454	1.0	2.5	12.453	0	UA_with_intermediate	practice	ward_and_allport	-1	0.0	n/a	feedback	poldrack-single-stim	s622	False
14.956	4.525	4.525	19.481	1	UA_with_intermediate	practice	ward_and_allport	71	1.0	4.525	to_hand	poldrack-single-stim	s622	False
19.481	0.1	3.17	22.651	0	UA_with_intermediate	practice	ward_and_allport	71	1.0	3.17	to_board	poldrack-single-stim	s622	False
22.653	0.1	0.918	23.571	0	UA_with_intermediate	practice	ward_and_allport	89	1.0	0.918	to_hand	poldrack-single-stim	s622	False
23.572	0.1	0.579	24.151	0	UA_with_intermediate	practice	ward_and_allport	82	1.0	0.579	to_board	poldrack-single-stim	s622	False
24.152	0.1	0.415	24.567	0	UA_with_intermediate	practice	ward_and_allport	71	1.0	0.415	to_hand	poldrack-single-stim	s622	False
24.568	0.1	0.375	24.943	0	UA_with_intermediate	practice	ward_and_allport	89	1.0	0.375	to_board	poldrack-single-stim	s622	False
24.945	0.1	0.478	25.423	0	UA_with_intermediate	practice	ward_and_allport	82	1.0	0.478	to_hand	poldrack-single-stim	s622	False
25.424	0.1	0.77	26.194	0	UA_with_intermediate	practice	ward_and_allport	89	1.0	0.77	to_board	poldrack-single-stim	s622	False
26.198	1.0	2.1	26.197	0	UA_with_intermediate	practice	ward_and_allport	-1	1.0	n/a	feedback	poldrack-single-stim	s622	False
28.3	2.864	2.864	31.164	1	UA_without_intermediate	practice	ward_and_allport	82	2.0	2.864	to_hand	poldrack-single-stim	s622	False
31.165	0.1	0.576	31.741	0	UA_without_intermediate	practice	ward_and_allport	89	2.0	0.576	to_board	poldrack-single-stim	s622	False
31.742	0.1	0.419	32.161	0	UA_without_intermediate	practice	ward_and_allport	71	2.0	0.419	to_hand	poldrack-single-stim	s622	False
32.163	0.1	0.876	33.039	0	UA_without_intermediate	practice	ward_and_allport	89	2.0	0.876	to_board	poldrack-single-stim	s622	False
33.041	0.1	1.078	34.119	0	UA_without_intermediate	practice	ward_and_allport	71	2.0	1.078	to_hand	poldrack-single-stim	s622	False
34.119	0.1	0.282	34.401	0	UA_without_intermediate	practice	ward_and_allport	89	2.0	0.282	to_board	poldrack-single-stim	s622	False
34.403	1.0	2.2	34.402	0	UA_without_intermediate	practice	ward_and_allport	-1	2.0	n/a	feedback	poldrack-single-stim	s622	False
36.604	2.805	2.805	39.409	1	UA_without_intermediate	practice	ward_and_allport	71	3.0	2.805	to_hand	poldrack-single-stim	s622	False
39.41	0.1	0.442	39.852	0	UA_without_intermediate	practice	ward_and_allport	89	3.0	0.442	to_board	poldrack-single-stim	s622	False
39.853	0.1	1.69	41.543	0	UA_without_intermediate	practice	ward_and_allport	82	3.0	1.69	to_hand	poldrack-single-stim	s622	False
41.545	0.1	0.451	41.996	0	UA_without_intermediate	practice	ward_and_allport	89	3.0	0.451	to_board	poldrack-single-stim	s622	False
41.997	0.1	0.662	42.659	0	UA_without_intermediate	practice	ward_and_allport	71	3.0	0.662	to_hand	poldrack-single-stim	s622	False
42.66	0.1	0.328	42.988	0	UA_without_intermediate	practice	ward_and_allport	89	3.0	0.328	to_board	poldrack-single-stim	s622	False
42.992	1.0	2.0	42.991	0	UA_without_intermediate	practice	ward_and_allport	-1	3.0	n/a	feedback	poldrack-single-stim	s622	False
47.003	11.117	11.117	58.12	1	PA_without_intermediate	test	ward_and_allport	71	0.0	11.117	to_hand	poldrack-single-stim	s622	False
58.12	0.1	0.756	58.876	0	PA_without_intermediate	test	ward_and_allport	82	0.0	0.756	to_board	poldrack-single-stim	s622	False
58.878	0.1	0.932	59.81	0	PA_without_intermediate	test	ward_and_allport	71	0.0	0.932	to_hand	poldrack-single-stim	s622	False
59.811	0.1	0.482	60.293	0	PA_without_intermediate	test	ward_and_allport	82	0.0	0.482	to_board	poldrack-single-stim	s622	False
60.294	0.1	1.412	61.706	0	PA_without_intermediate	test	ward_and_allport	71	0.0	1.412	to_hand	poldrack-single-stim	s622	False
61.707	0.1	0.379	62.086	0	PA_without_intermediate	test	ward_and_allport	89	0.0	0.379	to_board	poldrack-single-stim	s622	False
62.092	1.0	3.088	62.091	0	PA_without_intermediate	test	ward_and_allport	-1	0.0	n/a	feedback	poldrack-single-stim	s622	False
65.182	6.794	6.794	71.976	1	PA_with_intermediate	test	ward_and_allport	71	1.0	6.794	to_hand	poldrack-single-stim	s622	False
71.976	0.1	0.393	72.369	0	PA_with_intermediate	test	ward_and_allport	82	1.0	0.393	to_board	poldrack-single-stim	s622	False
72.371	0.1	0.966	73.337	0	PA_with_intermediate	test	ward_and_allport	71	1.0	0.966	to_hand	poldrack-single-stim	s622	False
73.339	0.1	0.466	73.805	0	PA_with_intermediate	test	ward_and_allport	89	1.0	0.466	to_board	poldrack-single-stim	s622	False
73.806	0.1	1.389	75.195	0	PA_with_intermediate	test	ward_and_allport	82	1.0	1.389	to_hand	poldrack-single-stim	s622	False
75.197	0.1	0.341	75.538	0	PA_with_intermediate	test	ward_and_allport	89	1.0	0.341	to_board	poldrack-single-stim	s622	False
75.54	1.0	2.0	75.539	0	PA_with_intermediate	test	ward_and_allport	-1	1.0	n/a	feedback	poldrack-single-stim	s622	False
77.543	6.071	6.071	83.614	1	PA_without_intermediate	test	ward_and_allport	89	2.0	6.071	to_hand	poldrack-single-stim	s622	False
83.615	0.1	1.283	84.898	0	PA_without_intermediate	test	ward_and_allport	71	2.0	1.283	to_board	poldrack-single-stim	s622	False
84.9	0.1	1.481	86.381	0	PA_without_intermediate	test	ward_and_allport	89	2.0	1.481	to_hand	poldrack-single-stim	s622	False
86.383	0.1	0.65	87.033	0	PA_without_intermediate	test	ward_and_allport	71	2.0	0.65	to_board	poldrack-single-stim	s622	False
87.034	0.1	0.403	87.437	0	PA_without_intermediate	test	ward_and_allport	89	2.0	0.403	to_hand	poldrack-single-stim	s622	False
87.439	0.1	0.475	87.914	0	PA_without_intermediate	test	ward_and_allport	82	2.0	0.475	to_board	poldrack-single-stim	s622	False
87.917	1.0	2.0	87.916	0	PA_without_intermediate	test	ward_and_allport	-1	2.0	n/a	feedback	poldrack-single-stim	s622	False
89.919	3.105	3.105	93.024	1	PA_without_intermediate	test	ward_and_allport	89	3.0	3.105	to_hand	poldrack-single-stim	s622	False
93.024	0.1	0.283	93.307	0	PA_without_intermediate	test	ward_and_allport	71	3.0	0.283	to_board	poldrack-single-stim	s622	False
93.309	0.1	1.69	94.999	0	PA_without_intermediate	test	ward_and_allport	89	3.0	1.69	to_hand	poldrack-single-stim	s622	False
95.0	0.1	0.307	95.307	0	PA_without_intermediate	test	ward_and_allport	82	3.0	0.307	to_board	poldrack-single-stim	s622	False
95.309	0.1	1.425	96.734	0	PA_without_intermediate	test	ward_and_allport	89	3.0	1.425	to_hand	poldrack-single-stim	s622	False
96.735	0.1	0.237	96.972	0	PA_without_intermediate	test	ward_and_allport	71	3.0	0.237	to_board	poldrack-single-stim	s622	False
96.978	1.0	2.0	96.977	0	PA_without_intermediate	test	ward_and_allport	-1	3.0	n/a	feedback	poldrack-single-stim	s622	False
98.98	5.87	5.87	104.85	1	PA_with_intermediate	test	ward_and_allport	71	4.0	5.87	to_hand	poldrack-single-stim	s622	False
104.852	0.1	0.386	105.238	0	PA_with_intermediate	test	ward_and_allport	82	4.0	0.386	to_board	poldrack-single-stim	s622	False
105.241	0.1	0.939	106.18	0	PA_with_intermediate	test	ward_and_allport	71	4.0	0.939	to_hand	poldrack-single-stim	s622	False
106.181	0.1	0.349	106.53	0	PA_with_intermediate	test	ward_and_allport	89	4.0	0.349	to_board	poldrack-single-stim	s622	False
106.532	0.1	1.506	108.038	0	PA_with_intermediate	test	ward_and_allport	82	4.0	1.506	to_hand	poldrack-single-stim	s622	False
108.039	0.1	0.853	108.892	0	PA_with_intermediate	test	ward_and_allport	71	4.0	0.853	to_board	poldrack-single-stim	s622	False
108.899	1.0	2.544	108.898	0	PA_with_intermediate	test	ward_and_allport	-1	4.0	n/a	feedback	poldrack-single-stim	s622	False
111.444	3.011	3.011	114.455	1	PA_without_intermediate	test	ward_and_allport	71	5.0	3.011	to_hand	poldrack-single-stim	s622	False
114.457	0.1	0.375	114.832	0	PA_without_intermediate	test	ward_and_allport	82	5.0	0.375	to_board	poldrack-single-stim	s622	False
114.834	0.1	1.975	116.809	0	PA_without_intermediate	test	ward_and_allport	71	5.0	1.975	to_hand	poldrack-single-stim	s622	False
116.811	0.1	0.63	117.441	0	PA_without_intermediate	test	ward_and_allport	89	5.0	0.63	to_board	poldrack-single-stim	s622	False
117.444	0.1	0.79	118.234	0	PA_without_intermediate	test	ward_and_allport	71	5.0	0.79	to_hand	poldrack-single-stim	s622	False
118.234	0.1	0.222	118.456	0	PA_without_intermediate	test	ward_and_allport	82	5.0	0.222	to_board	poldrack-single-stim	s622	False
118.462	1.0	2.272	118.461	0	PA_without_intermediate	test	ward_and_allport	-1	5.0	n/a	feedback	poldrack-single-stim	s622	False
120.735	6.103	6.103	126.838	1	PA_with_intermediate	test	ward_and_allport	82	6.0	6.103	to_hand	poldrack-single-stim	s622	False
126.839	0.1	0.728	127.567	0	PA_with_intermediate	test	ward_and_allport	71	6.0	0.728	to_board	poldrack-single-stim	s622	False
127.571	0.1	1.264	128.835	0	PA_with_intermediate	test	ward_and_allport	82	6.0	1.264	to_hand	poldrack-single-stim	s622	False
128.836	0.1	0.352	129.188	0	PA_with_intermediate	test	ward_and_allport	89	6.0	0.352	to_board	poldrack-single-stim	s622	False
129.189	0.1	0.732	129.921	0	PA_with_intermediate	test	ward_and_allport	71	6.0	0.732	to_hand	poldrack-single-stim	s622	False
129.922	0.1	0.401	130.323	0	PA_with_intermediate	test	ward_and_allport	89	6.0	0.401	to_board	poldrack-single-stim	s622	False
130.331	1.0	4.04	130.33	0	PA_with_intermediate	test	ward_and_allport	-1	6.0	n/a	feedback	poldrack-single-stim	s622	False
134.374	5.261	5.261	139.635	1	PA_with_intermediate	test	ward_and_allport	82	7.0	5.261	to_hand	poldrack-single-stim	s622	False
139.636	0.1	0.385	140.021	0	PA_with_intermediate	test	ward_and_allport	71	7.0	0.385	to_board	poldrack-single-stim	s622	False
140.024	0.1	0.667	140.691	0	PA_with_intermediate	test	ward_and_allport	82	7.0	0.667	to_hand	poldrack-single-stim	s622	False
140.692	0.1	0.447	141.139	0	PA_with_intermediate	test	ward_and_allport	89	7.0	0.447	to_board	poldrack-single-stim	s622	False
141.142	0.1	1.245	142.387	0	PA_with_intermediate	test	ward_and_allport	71	7.0	1.245	to_hand	poldrack-single-stim	s622	False
142.388	0.1	0.499	142.887	0	PA_with_intermediate	test	ward_and_allport	82	7.0	0.499	to_board	poldrack-single-stim	s622	False
142.895	1.0	2.272	142.894	0	PA_with_intermediate	test	ward_and_allport	-1	7.0	n/a	feedback	poldrack-single-stim	s622	False
145.169	6.452	6.452	151.621	1	PA_with_intermediate	test	ward_and_allport	82	8.0	6.452	to_hand	poldrack-single-stim	s622	False
151.623	0.1	0.628	152.251	0	PA_with_intermediate	test	ward_and_allport	89	8.0	0.628	to_board	poldrack-single-stim	s622	False
152.253	0.1	1.282	153.535	0	PA_with_intermediate	test	ward_and_allport	82	8.0	1.282	to_hand	poldrack-single-stim	s622	False
153.537	0.1	0.588	154.125	0	PA_with_intermediate	test	ward_and_allport	71	8.0	0.588	to_board	poldrack-single-stim	s622	False
154.129	0.1	1.194	155.323	0	PA_with_intermediate	test	ward_and_allport	89	8.0	1.194	to_hand	poldrack-single-stim	s622	False
155.323	0.1	0.177	155.5	0	PA_with_intermediate	test	ward_and_allport	71	8.0	0.177	to_board	poldrack-single-stim	s622	False
155.506	1.0	2.136	155.505	0	PA_with_intermediate	test	ward_and_allport	-1	8.0	n/a	feedback	poldrack-single-stim	s622	False
157.644	7.18	7.18	164.824	1	PA_with_intermediate	test	ward_and_allport	89	9.0	7.18	to_hand	poldrack-single-stim	s622	False
164.825	0.1	0.231	165.056	0	PA_with_intermediate	test	ward_and_allport	71	9.0	0.231	to_board	poldrack-single-stim	s622	False
165.06	0.1	1.06	166.12	0	PA_with_intermediate	test	ward_and_allport	89	9.0	1.06	to_hand	poldrack-single-stim	s622	False
166.121	0.1	0.255	166.376	0	PA_with_intermediate	test	ward_and_allport	82	9.0	0.255	to_board	poldrack-single-stim	s622	False
166.379	0.1	0.653	167.032	0	PA_with_intermediate	test	ward_and_allport	71	9.0	0.653	to_hand	poldrack-single-stim	s622	False
167.033	0.1	0.196	167.229	0	PA_with_intermediate	test	ward_and_allport	82	9.0	0.196	to_board	poldrack-single-stim	s622	False
167.237	1.0	2.0	167.236	0	PA_with_intermediate	test	ward_and_allport	-1	9.0	n/a	feedback	poldrack-single-stim	s622	False
169.24	5.207	5.207	174.447	1	PA_with_intermediate	test	ward_and_allport	82	10.0	5.207	to_hand	poldrack-single-stim	s622	False
174.449	0.1	0.416	174.865	0	PA_with_intermediate	test	ward_and_allport	71	10.0	0.416	to_board	poldrack-single-stim	s622	False
174.869	0.1	0.57	175.439	0	PA_with_intermediate	test	ward_and_allport	82	10.0	0.57	to_hand	poldrack-single-stim	s622	False
175.441	0.1	0.348	175.789	0	PA_with_intermediate	test	ward_and_allport	89	10.0	0.348	to_board	poldrack-single-stim	s622	False
175.793	0.1	0.357	176.15	0	PA_with_intermediate	test	ward_and_allport	71	10.0	0.357	to_hand	poldrack-single-stim	s622	False
176.151	0.1	0.289	176.44	0	PA_with_intermediate	test	ward_and_allport	89	10.0	0.289	to_board	poldrack-single-stim	s622	False
176.448	1.0	2.0	176.447	0	PA_with_intermediate	test	ward_and_allport	-1	10.0	n/a	feedback	poldrack-single-stim	s622	False
178.45	4.765	4.765	183.215	1	PA_without_intermediate	test	ward_and_allport	89	11.0	4.765	to_hand	poldrack-single-stim	s622	False
183.217	0.1	0.278	183.495	0	PA_without_intermediate	test	ward_and_allport	82	11.0	0.278	to_board	poldrack-single-stim	s622	False
183.497	0.1	0.792	184.289	0	PA_without_intermediate	test	ward_and_allport	89	11.0	0.792	to_hand	poldrack-single-stim	s622	False
184.291	0.1	0.222	184.513	0	PA_without_intermediate	test	ward_and_allport	82	11.0	0.222	to_board	poldrack-single-stim	s622	False
184.517	0.1	1.911	186.428	0	PA_without_intermediate	test	ward_and_allport	89	11.0	1.911	to_hand	poldrack-single-stim	s622	False
186.429	0.1	0.505	186.934	0	PA_without_intermediate	test	ward_and_allport	71	11.0	0.505	to_board	poldrack-single-stim	s622	False
186.941	1.0	2.408	186.94	0	PA_without_intermediate	test	ward_and_allport	-1	11.0	n/a	feedback	poldrack-single-stim	s622	False
189.354	7.624	7.624	196.978	1	PA_with_intermediate	test	ward_and_allport	71	12.0	7.624	to_hand	poldrack-single-stim	s622	False
196.978	0.1	0.292	197.27	0	PA_with_intermediate	test	ward_and_allport	82	12.0	0.292	to_board	poldrack-single-stim	s622	False
197.274	0.1	0.773	198.047	0	PA_with_intermediate	test	ward_and_allport	71	12.0	0.773	to_hand	poldrack-single-stim	s622	False
198.048	0.1	0.233	198.281	0	PA_with_intermediate	test	ward_and_allport	89	12.0	0.233	to_board	poldrack-single-stim	s622	False
198.284	0.1	0.72	199.004	0	PA_with_intermediate	test	ward_and_allport	82	12.0	0.72	to_hand	poldrack-single-stim	s622	False
199.005	0.1	0.293	199.298	0	PA_with_intermediate	test	ward_and_allport	89	12.0	0.293	to_board	poldrack-single-stim	s622	False
199.302	0.1	3.135	202.437	0	PA_with_intermediate	test	ward_and_allport	89	12.0	3.135	to_hand	poldrack-single-stim	s622	False
202.438	0.1	0.604	203.042	0	PA_with_intermediate	test	ward_and_allport	71	12.0	0.604	to_board	poldrack-single-stim	s622	False
203.049	1.0	3.768	203.048	0	PA_with_intermediate	test	ward_and_allport	-1	12.0	n/a	feedback	poldrack-single-stim	s622	False
206.821	5.811	5.811	212.632	1	PA_with_intermediate	test	ward_and_allport	89	13.0	5.811	to_hand	poldrack-single-stim	s622	False
212.633	0.1	0.386	213.019	0	PA_with_intermediate	test	ward_and_allport	82	13.0	0.386	to_board	poldrack-single-stim	s622	False
213.024	0.1	0.572	213.596	0	PA_with_intermediate	test	ward_and_allport	89	13.0	0.572	to_hand	poldrack-single-stim	s622	False
213.597	0.1	0.293	213.89	0	PA_with_intermediate	test	ward_and_allport	71	13.0	0.293	to_board	poldrack-single-stim	s622	False
213.893	0.1	2.978	216.871	0	PA_with_intermediate	test	ward_and_allport	82	13.0	2.978	to_hand	poldrack-single-stim	s622	False
216.872	0.1	0.367	217.239	0	PA_with_intermediate	test	ward_and_allport	89	13.0	0.367	to_board	poldrack-single-stim	s622	False
217.246	1.0	2.68	217.245	0	PA_with_intermediate	test	ward_and_allport	-1	13.0	n/a	feedback	poldrack-single-stim	s622	False
219.931	3.358	3.358	223.289	1	PA_without_intermediate	test	ward_and_allport	89	14.0	3.358	to_hand	poldrack-single-stim	s622	False
223.29	0.1	0.33	223.62	0	PA_without_intermediate	test	ward_and_allport	82	14.0	0.33	to_board	poldrack-single-stim	s622	False
223.624	0.1	1.916	225.54	0	PA_without_intermediate	test	ward_and_allport	89	14.0	1.916	to_hand	poldrack-single-stim	s622	False
225.541	0.1	0.328	225.869	0	PA_without_intermediate	test	ward_and_allport	82	14.0	0.328	to_board	poldrack-single-stim	s622	False
225.875	0.1	0.5	226.375	0	PA_without_intermediate	test	ward_and_allport	89	14.0	0.5	to_hand	poldrack-single-stim	s622	False
226.376	0.1	0.326	226.702	0	PA_without_intermediate	test	ward_and_allport	71	14.0	0.326	to_board	poldrack-single-stim	s622	False
226.708	1.0	3.224	226.707	0	PA_without_intermediate	test	ward_and_allport	-1	14.0	n/a	feedback	poldrack-single-stim	s622	False
234.94	6.196	6.196	241.136	1	PA_without_intermediate	test	ward_and_allport	71	15.0	6.196	to_hand	poldrack-single-stim	s622	False
241.137	0.1	0.442	241.579	0	PA_without_intermediate	test	ward_and_allport	89	15.0	0.442	to_board	poldrack-single-stim	s622	False
241.583	0.1	0.948	242.531	0	PA_without_intermediate	test	ward_and_allport	71	15.0	0.948	to_hand	poldrack-single-stim	s622	False
242.532	0.1	0.463	242.995	0	PA_without_intermediate	test	ward_and_allport	82	15.0	0.463	to_board	poldrack-single-stim	s622	False
242.998	0.1	0.914	243.912	0	PA_without_intermediate	test	ward_and_allport	71	15.0	0.914	to_hand	poldrack-single-stim	s622	False
243.913	0.1	0.356	244.269	0	PA_without_intermediate	test	ward_and_allport	89	15.0	0.356	to_board	poldrack-single-stim	s622	False
244.274	1.0	3.36	244.273	0	PA_without_intermediate	test	ward_and_allport	-1	15.0	n/a	feedback	poldrack-single-stim	s622	False
247.638	3.153	3.153	250.791	1	PA_without_intermediate	test	ward_and_allport	71	16.0	3.153	to_hand	poldrack-single-stim	s622	False
250.791	0.1	0.406	251.197	0	PA_without_intermediate	test	ward_and_allport	82	16.0	0.406	to_board	poldrack-single-stim	s622	False
251.201	0.1	1.114	252.315	0	PA_without_intermediate	test	ward_and_allport	71	16.0	1.114	to_hand	poldrack-single-stim	s622	False
252.316	0.1	0.246	252.562	0	PA_without_intermediate	test	ward_and_allport	89	16.0	0.246	to_board	poldrack-single-stim	s622	False
252.566	0.1	0.954	253.52	0	PA_without_intermediate	test	ward_and_allport	71	16.0	0.954	to_hand	poldrack-single-stim	s622	False
253.52	0.1	0.264	253.784	0	PA_without_intermediate	test	ward_and_allport	82	16.0	0.264	to_board	poldrack-single-stim	s622	False
253.789	1.0	2.0	253.788	0	PA_without_intermediate	test	ward_and_allport	-1	16.0	n/a	feedback	poldrack-single-stim	s622	False
255.793	4.313	4.313	260.106	1	PA_without_intermediate	test	ward_and_allport	82	17.0	4.313	to_hand	poldrack-single-stim	s622	False
260.107	0.1	0.369	260.476	0	PA_without_intermediate	test	ward_and_allport	89	17.0	0.369	to_board	poldrack-single-stim	s622	False
260.48	0.1	1.296	261.776	0	PA_without_intermediate	test	ward_and_allport	82	17.0	1.296	to_hand	poldrack-single-stim	s622	False
261.776	0.1	0.574	262.35	0	PA_without_intermediate	test	ward_and_allport	89	17.0	0.574	to_board	poldrack-single-stim	s622	False
262.354	0.1	0.982	263.336	0	PA_without_intermediate	test	ward_and_allport	82	17.0	0.982	to_hand	poldrack-single-stim	s622	False
263.338	0.1	0.234	263.572	0	PA_without_intermediate	test	ward_and_allport	71	17.0	0.234	to_board	poldrack-single-stim	s622	False
263.579	1.0	2.408	263.578	0	PA_without_intermediate	test	ward_and_allport	-1	17.0	n/a	feedback	poldrack-single-stim	s622	False
265.991	5.222	5.222	271.213	1	PA_with_intermediate	test	ward_and_allport	71	18.0	5.222	to_hand	poldrack-single-stim	s622	False
271.214	0.1	0.191	271.405	0	PA_with_intermediate	test	ward_and_allport	89	18.0	0.191	to_board	poldrack-single-stim	s622	False
271.41	0.1	0.491	271.901	0	PA_with_intermediate	test	ward_and_allport	71	18.0	0.491	to_hand	poldrack-single-stim	s622	False
271.901	0.1	0.255	272.156	0	PA_with_intermediate	test	ward_and_allport	82	18.0	0.255	to_board	poldrack-single-stim	s622	False
272.161	0.1	1.473	273.634	0	PA_with_intermediate	test	ward_and_allport	89	18.0	1.473	to_hand	poldrack-single-stim	s622	False
273.635	0.1	0.196	273.831	0	PA_with_intermediate	test	ward_and_allport	71	18.0	0.196	to_board	poldrack-single-stim	s622	False
273.84	1.0	2.136	273.839	0	PA_with_intermediate	test	ward_and_allport	-1	18.0	n/a	feedback	poldrack-single-stim	s622	False
275.98	5.209	5.209	281.189	1	PA_without_intermediate	test	ward_and_allport	82	19.0	5.209	to_hand	poldrack-single-stim	s622	False
281.191	0.1	0.213	281.404	0	PA_without_intermediate	test	ward_and_allport	89	19.0	0.213	to_board	poldrack-single-stim	s622	False
281.407	0.1	0.429	281.836	0	PA_without_intermediate	test	ward_and_allport	82	19.0	0.429	to_hand	poldrack-single-stim	s622	False
281.837	0.1	5.281	287.118	0	PA_without_intermediate	test	ward_and_allport	82	19.0	5.281	to_board	poldrack-single-stim	s622	False
287.123	0.1	1.202	288.325	0	PA_without_intermediate	test	ward_and_allport	89	19.0	1.202	to_hand	poldrack-single-stim	s622	False
288.326	0.1	0.327	288.653	0	PA_without_intermediate	test	ward_and_allport	71	19.0	0.327	to_board	poldrack-single-stim	s622	False
288.657	0.1	0.628	289.285	0	PA_without_intermediate	test	ward_and_allport	82	19.0	0.628	to_hand	poldrack-single-stim	s622	False
289.286	0.1	0.399	289.685	0	PA_without_intermediate	test	ward_and_allport	89	19.0	0.399	to_board	poldrack-single-stim	s622	False
289.69	0.1	0.941	290.631	0	PA_without_intermediate	test	ward_and_allport	82	19.0	0.941	to_hand	poldrack-single-stim	s622	False
290.632	0.1	0.777	291.409	0	PA_without_intermediate	test	ward_and_allport	71	19.0	0.777	to_board	poldrack-single-stim	s622	False
291.42	1.0	5.128	291.419	0	PA_without_intermediate	test	ward_and_allport	-1	19.0	n/a	feedback	poldrack-single-stim	s622	False
296.552	2.472	2.472	299.024	1	PA_without_intermediate	test	ward_and_allport	89	20.0	2.472	to_hand	poldrack-single-stim	s622	False
299.025	0.1	0.286	299.311	0	PA_without_intermediate	test	ward_and_allport	71	20.0	0.286	to_board	poldrack-single-stim	s622	False
299.317	0.1	1.194	300.511	0	PA_without_intermediate	test	ward_and_allport	89	20.0	1.194	to_hand	poldrack-single-stim	s622	False
300.511	0.1	0.214	300.725	0	PA_without_intermediate	test	ward_and_allport	82	20.0	0.214	to_board	poldrack-single-stim	s622	False
300.73	0.1	0.87	301.6	0	PA_without_intermediate	test	ward_and_allport	89	20.0	0.87	to_hand	poldrack-single-stim	s622	False
301.602	0.1	0.232	301.834	0	PA_without_intermediate	test	ward_and_allport	71	20.0	0.232	to_board	poldrack-single-stim	s622	False
301.841	1.0	2.136	301.84	0	PA_without_intermediate	test	ward_and_allport	-1	20.0	n/a	feedback	poldrack-single-stim	s622	False
303.982	4.226	4.226	308.208	1	PA_without_intermediate	test	ward_and_allport	71	21.0	4.226	to_hand	poldrack-single-stim	s622	False
308.208	0.1	0.273	308.481	0	PA_without_intermediate	test	ward_and_allport	82	21.0	0.273	to_board	poldrack-single-stim	s622	False
308.487	0.1	0.757	309.244	0	PA_without_intermediate	test	ward_and_allport	71	21.0	0.757	to_hand	poldrack-single-stim	s622	False
309.244	0.1	0.201	309.445	0	PA_without_intermediate	test	ward_and_allport	89	21.0	0.201	to_board	poldrack-single-stim	s622	False
309.452	0.1	1.777	311.229	0	PA_without_intermediate	test	ward_and_allport	82	21.0	1.777	to_hand	poldrack-single-stim	s622	False
311.23	0.1	0.366	311.596	0	PA_without_intermediate	test	ward_and_allport	89	21.0	0.366	to_board	poldrack-single-stim	s622	False
311.602	0.1	1.038	312.64	0	PA_without_intermediate	test	ward_and_allport	71	21.0	1.038	to_hand	poldrack-single-stim	s622	False
312.641	0.1	0.346	312.987	0	PA_without_intermediate	test	ward_and_allport	82	21.0	0.346	to_board	poldrack-single-stim	s622	False
312.993	0.1	7.258	320.251	0	PA_without_intermediate	test	ward_and_allport	89	21.0	7.258	to_hand	poldrack-single-stim	s622	False
320.252	0.1	0.736	320.988	0	PA_without_intermediate	test	ward_and_allport	71	21.0	0.736	to_board	poldrack-single-stim	s622	False
320.994	0.1	1.253	322.247	0	PA_without_intermediate	test	ward_and_allport	89	21.0	1.253	to_hand	poldrack-single-stim	s622	False
322.247	0.1	0.285	322.532	0	PA_without_intermediate	test	ward_and_allport	71	21.0	0.285	to_board	poldrack-single-stim	s622	False
322.538	0.1	1.121	323.659	0	PA_without_intermediate	test	ward_and_allport	71	21.0	1.121	to_hand	poldrack-single-stim	s622	False
323.66	0.1	0.229	323.889	0	PA_without_intermediate	test	ward_and_allport	82	21.0	0.229	to_board	poldrack-single-stim	s622	False
323.894	0.1	0.733	324.627	0	PA_without_intermediate	test	ward_and_allport	71	21.0	0.733	to_hand	poldrack-single-stim	s622	False
324.628	0.1	0.208	324.836	0	PA_without_intermediate	test	ward_and_allport	89	21.0	0.208	to_board	poldrack-single-stim	s622	False
324.841	0.1	0.67	325.511	0	PA_without_intermediate	test	ward_and_allport	82	21.0	0.67	to_hand	poldrack-single-stim	s622	False
325.513	0.1	0.211	325.724	0	PA_without_intermediate	test	ward_and_allport	89	21.0	0.211	to_board	poldrack-single-stim	s622	False
325.733	1.0	5.264	325.732	0	PA_without_intermediate	test	ward_and_allport	-1	21.0	n/a	feedback	poldrack-single-stim	s622	False
331.003	8.382	8.382	339.385	1	PA_with_intermediate	test	ward_and_allport	89	22.0	8.382	to_hand	poldrack-single-stim	s622	False
339.386	0.1	0.296	339.682	0	PA_with_intermediate	test	ward_and_allport	82	22.0	0.296	to_board	poldrack-single-stim	s622	False
339.69	0.1	1.462	341.152	0	PA_with_intermediate	test	ward_and_allport	89	22.0	1.462	to_hand	poldrack-single-stim	s622	False
341.153	0.1	1.119	342.272	0	PA_with_intermediate	test	ward_and_allport	71	22.0	1.119	to_board	poldrack-single-stim	s622	False
342.278	0.1	1.27	343.548	0	PA_with_intermediate	test	ward_and_allport	82	22.0	1.27	to_hand	poldrack-single-stim	s622	False
343.55	0.1	0.299	343.849	0	PA_with_intermediate	test	ward_and_allport	71	22.0	0.299	to_board	poldrack-single-stim	s622	False
343.859	1.0	4.04	343.858	0	PA_with_intermediate	test	ward_and_allport	-1	22.0	n/a	feedback	poldrack-single-stim	s622	False
347.904	5.107	5.107	353.011	1	PA_with_intermediate	test	ward_and_allport	82	23.0	5.107	to_hand	poldrack-single-stim	s622	False
353.013	0.1	0.29	353.303	0	PA_with_intermediate	test	ward_and_allport	89	23.0	0.29	to_board	poldrack-single-stim	s622	False
353.309	0.1	1.269	354.578	0	PA_with_intermediate	test	ward_and_allport	82	23.0	1.269	to_hand	poldrack-single-stim	s622	False
354.578	0.1	0.248	354.826	0	PA_with_intermediate	test	ward_and_allport	71	23.0	0.248	to_board	poldrack-single-stim	s622	False
354.832	0.1	0.848	355.68	0	PA_with_intermediate	test	ward_and_allport	89	23.0	0.848	to_hand	poldrack-single-stim	s622	False
355.681	0.1	0.214	355.895	0	PA_with_intermediate	test	ward_and_allport	71	23.0	0.214	to_board	poldrack-single-stim	s622	False
355.902	1.0	2.136	355.901	0	PA_with_intermediate	test	ward_and_allport	-1	23.0	n/a	feedback	poldrack-single-stim	s622	False
358.043	4.337	4.337	362.38	1	PA_with_intermediate	test	ward_and_allport	82	24.0	4.337	to_hand	poldrack-single-stim	s622	False
362.38	0.1	0.24	362.62	0	PA_with_intermediate	test	ward_and_allport	89	24.0	0.24	to_board	poldrack-single-stim	s622	False
362.627	0.1	0.886	363.513	0	PA_with_intermediate	test	ward_and_allport	82	24.0	0.886	to_hand	poldrack-single-stim	s622	False
363.514	0.1	0.261	363.775	0	PA_with_intermediate	test	ward_and_allport	71	24.0	0.261	to_board	poldrack-single-stim	s622	False
363.781	0.1	1.512	365.293	0	PA_with_intermediate	test	ward_and_allport	89	24.0	1.512	to_hand	poldrack-single-stim	s622	False
365.294	0.1	0.219	365.513	0	PA_with_intermediate	test	ward_and_allport	82	24.0	0.219	to_board	poldrack-single-stim	s622	False
365.524	1.0	2.408	365.523	0	PA_with_intermediate	test	ward_and_allport	-1	24.0	n/a	feedback	poldrack-single-stim	s622	False
367.938	4.993	4.993	372.931	1	PA_without_intermediate	test	ward_and_allport	89	25.0	4.993	to_hand	poldrack-single-stim	s622	False
372.931	0.1	0.712	373.643	0	PA_without_intermediate	test	ward_and_allport	71	25.0	0.712	to_board	poldrack-single-stim	s622	False
373.65	0.1	0.614	374.264	0	PA_without_intermediate	test	ward_and_allport	89	25.0	0.614	to_hand	poldrack-single-stim	s622	False
374.265	0.1	0.785	375.05	0	PA_without_intermediate	test	ward_and_allport	71	25.0	0.785	to_board	poldrack-single-stim	s622	False
375.056	0.1	0.439	375.495	0	PA_without_intermediate	test	ward_and_allport	89	25.0	0.439	to_hand	poldrack-single-stim	s622	False
375.496	0.1	0.325	375.821	0	PA_without_intermediate	test	ward_and_allport	82	25.0	0.325	to_board	poldrack-single-stim	s622	False
375.828	1.0	2.68	375.827	0	PA_without_intermediate	test	ward_and_allport	-1	25.0	n/a	feedback	poldrack-single-stim	s622	False
378.514	4.802	4.802	383.316	1	PA_with_intermediate	test	ward_and_allport	71	26.0	4.802	to_hand	poldrack-single-stim	s622	False
383.317	0.1	0.229	383.546	0	PA_with_intermediate	test	ward_and_allport	89	26.0	0.229	to_board	poldrack-single-stim	s622	False
383.552	0.1	0.497	384.049	0	PA_with_intermediate	test	ward_and_allport	71	26.0	0.497	to_hand	poldrack-single-stim	s622	False
384.05	0.1	0.67	384.72	0	PA_with_intermediate	test	ward_and_allport	82	26.0	0.67	to_board	poldrack-single-stim	s622	False
384.727	0.1	0.685	385.412	0	PA_with_intermediate	test	ward_and_allport	89	26.0	0.685	to_hand	poldrack-single-stim	s622	False
385.413	0.1	0.297	385.71	0	PA_with_intermediate	test	ward_and_allport	82	26.0	0.297	to_board	poldrack-single-stim	s622	False
385.716	0.1	2.924	388.64	0	PA_with_intermediate	test	ward_and_allport	82	26.0	2.924	to_hand	poldrack-single-stim	s622	False
388.641	0.1	0.777	389.418	0	PA_with_intermediate	test	ward_and_allport	71	26.0	0.777	to_board	poldrack-single-stim	s622	False
389.426	1.0	4.72	389.425	0	PA_with_intermediate	test	ward_and_allport	-1	26.0	n/a	feedback	poldrack-single-stim	s622	False
394.152	3.509	3.509	397.661	1	PA_without_intermediate	test	ward_and_allport	82	27.0	3.509	to_hand	poldrack-single-stim	s622	False
397.663	0.1	0.221	397.884	0	PA_without_intermediate	test	ward_and_allport	71	27.0	0.221	to_board	poldrack-single-stim	s622	False
397.891	0.1	3.229	401.12	0	PA_without_intermediate	test	ward_and_allport	82	27.0	3.229	to_hand	poldrack-single-stim	s622	False
401.12	0.1	0.477	401.597	0	PA_without_intermediate	test	ward_and_allport	71	27.0	0.477	to_board	poldrack-single-stim	s622	False
401.604	0.1	1.073	402.677	0	PA_without_intermediate	test	ward_and_allport	82	27.0	1.073	to_hand	poldrack-single-stim	s622	False
402.678	0.1	0.354	403.032	0	PA_without_intermediate	test	ward_and_allport	89	27.0	0.354	to_board	poldrack-single-stim	s622	False
403.04	1.0	3.224	403.039	0	PA_without_intermediate	test	ward_and_allport	-1	27.0	n/a	feedback	poldrack-single-stim	s622	False
406.271	3.482	3.482	409.753	1	PA_without_intermediate	test	ward_and_allport	89	28.0	3.482	to_hand	poldrack-single-stim	s622	False
409.753	0.1	0.386	410.139	0	PA_without_intermediate	test	ward_and_allport	82	28.0	0.386	to_board	poldrack-single-stim	s622	False
410.146	0.1	2.486	412.632	0	PA_without_intermediate	test	ward_and_allport	89	28.0	2.486	to_hand	poldrack-single-stim	s622	False
412.633	0.1	0.266	412.899	0	PA_without_intermediate	test	ward_and_allport	71	28.0	0.266	to_board	poldrack-single-stim	s622	False
412.905	0.1	0.303	413.208	0	PA_without_intermediate	test	ward_and_allport	89	28.0	0.303	to_hand	poldrack-single-stim	s622	False
413.209	0.1	0.34	413.549	0	PA_without_intermediate	test	ward_and_allport	82	28.0	0.34	to_board	poldrack-single-stim	s622	False
413.56	1.0	2.272	413.559	0	PA_without_intermediate	test	ward_and_allport	-1	28.0	n/a	feedback	poldrack-single-stim	s622	False
415.839	5.76	5.76	421.599	1	PA_with_intermediate	test	ward_and_allport	71	29.0	5.76	to_hand	poldrack-single-stim	s622	False
421.601	0.1	0.292	421.893	0	PA_with_intermediate	test	ward_and_allport	89	29.0	0.292	to_board	poldrack-single-stim	s622	False
421.9	0.1	0.508	422.408	0	PA_with_intermediate	test	ward_and_allport	71	29.0	0.508	to_hand	poldrack-single-stim	s622	False
422.409	0.1	0.429	422.838	0	PA_with_intermediate	test	ward_and_allport	82	29.0	0.429	to_board	poldrack-single-stim	s622	False
422.844	0.1	0.616	423.46	0	PA_with_intermediate	test	ward_and_allport	89	29.0	0.616	to_hand	poldrack-single-stim	s622	False
423.461	0.1	0.291	423.752	0	PA_with_intermediate	test	ward_and_allport	82	29.0	0.291	to_board	poldrack-single-stim	s622	False
423.763	1.0	3.632	423.762	0	PA_with_intermediate	test	ward_and_allport	-1	29.0	n/a	feedback	poldrack-single-stim	s622	False
432.404	2.748	2.748	435.152	1	PA_without_intermediate	test	ward_and_allport	82	30.0	2.748	to_hand	poldrack-single-stim	s622	False
435.154	0.1	0.306	435.46	0	PA_without_intermediate	test	ward_and_allport	89	30.0	0.306	to_board	poldrack-single-stim	s622	False
435.468	0.1	2.236	437.704	0	PA_without_intermediate	test	ward_and_allport	82	30.0	2.236	to_hand	poldrack-single-stim	s622	False
437.705	0.1	0.235	437.94	0	PA_without_intermediate	test	ward_and_allport	89	30.0	0.235	to_board	poldrack-single-stim	s622	False
437.948	0.1	1.062	439.01	0	PA_without_intermediate	test	ward_and_allport	82	30.0	1.062	to_hand	poldrack-single-stim	s622	False
439.012	0.1	0.268	439.28	0	PA_without_intermediate	test	ward_and_allport	71	30.0	0.268	to_board	poldrack-single-stim	s622	False
439.292	1.0	2.408	439.291	0	PA_without_intermediate	test	ward_and_allport	-1	30.0	n/a	feedback	poldrack-single-stim	s622	False
441.707	5.791	5.791	447.498	1	PA_without_intermediate	test	ward_and_allport	71	31.0	5.791	to_hand	poldrack-single-stim	s622	False
447.499	0.1	0.166	447.665	0	PA_without_intermediate	test	ward_and_allport	89	31.0	0.166	to_board	poldrack-single-stim	s622	False
447.672	0.1	2.562	450.234	0	PA_without_intermediate	test	ward_and_allport	71	31.0	2.562	to_hand	poldrack-single-stim	s622	False
450.236	0.1	0.208	450.444	0	PA_without_intermediate	test	ward_and_allport	82	31.0	0.208	to_board	poldrack-single-stim	s622	False
450.452	0.1	0.699	451.151	0	PA_without_intermediate	test	ward_and_allport	71	31.0	0.699	to_hand	poldrack-single-stim	s622	False
451.153	0.1	0.559	451.712	0	PA_without_intermediate	test	ward_and_allport	89	31.0	0.559	to_board	poldrack-single-stim	s622	False
451.722	1.0	2.0	451.721	0	PA_without_intermediate	test	ward_and_allport	-1	31.0	n/a	feedback	poldrack-single-stim	s622	False
453.729	5.038	5.038	458.767	1	PA_with_intermediate	test	ward_and_allport	89	32.0	5.038	to_hand	poldrack-single-stim	s622	False
458.769	0.1	0.318	459.087	0	PA_with_intermediate	test	ward_and_allport	82	32.0	0.318	to_board	poldrack-single-stim	s622	False
459.094	0.1	0.432	459.526	0	PA_with_intermediate	test	ward_and_allport	89	32.0	0.432	to_hand	poldrack-single-stim	s622	False
459.526	0.1	0.478	460.004	0	PA_with_intermediate	test	ward_and_allport	71	32.0	0.478	to_board	poldrack-single-stim	s622	False
460.012	0.1	1.387	461.399	0	PA_with_intermediate	test	ward_and_allport	82	32.0	1.387	to_hand	poldrack-single-stim	s622	False
461.4	0.1	0.179	461.579	0	PA_with_intermediate	test	ward_and_allport	89	32.0	0.179	to_board	poldrack-single-stim	s622	False
461.589	1.0	2.0	461.588	0	PA_with_intermediate	test	ward_and_allport	-1	32.0	n/a	feedback	poldrack-single-stim	s622	False
463.598	7.044	7.044	470.642	1	PA_with_intermediate	test	ward_and_allport	89	33.0	7.044	to_hand	poldrack-single-stim	s622	False
470.643	0.1	0.202	470.845	0	PA_with_intermediate	test	ward_and_allport	71	33.0	0.202	to_board	poldrack-single-stim	s622	False
470.854	0.1	0.645	471.499	0	PA_with_intermediate	test	ward_and_allport	89	33.0	0.645	to_hand	poldrack-single-stim	s622	False
471.5	0.1	0.251	471.751	0	PA_with_intermediate	test	ward_and_allport	82	33.0	0.251	to_board	poldrack-single-stim	s622	False
471.759	0.1	0.647	472.406	0	PA_with_intermediate	test	ward_and_allport	71	33.0	0.647	to_hand	poldrack-single-stim	s622	False
472.407	0.1	0.151	472.558	0	PA_with_intermediate	test	ward_and_allport	89	33.0	0.151	to_board	poldrack-single-stim	s622	False
472.57	1.0	2.0	472.569	0	PA_with_intermediate	test	ward_and_allport	-1	33.0	n/a	feedback	poldrack-single-stim	s622	False
474.579	6.361	6.361	480.94	1	PA_with_intermediate	test	ward_and_allport	71	34.0	6.361	to_hand	poldrack-single-stim	s622	False
480.942	0.1	0.214	481.156	0	PA_with_intermediate	test	ward_and_allport	82	34.0	0.214	to_board	poldrack-single-stim	s622	False
481.164	0.1	1.072	482.236	0	PA_with_intermediate	test	ward_and_allport	71	34.0	1.072	to_hand	poldrack-single-stim	s622	False
482.237	0.1	0.166	482.403	0	PA_with_intermediate	test	ward_and_allport	89	34.0	0.166	to_board	poldrack-single-stim	s622	False
482.411	0.1	1.579	483.99	0	PA_with_intermediate	test	ward_and_allport	82	34.0	1.579	to_hand	poldrack-single-stim	s622	False
483.991	0.1	0.187	484.178	0	PA_with_intermediate	test	ward_and_allport	89	34.0	0.187	to_board	poldrack-single-stim	s622	False
484.19	1.0	2.408	484.189	0	PA_with_intermediate	test	ward_and_allport	-1	34.0	n/a	feedback	poldrack-single-stim	s622	False
486.606	3.129	3.129	489.735	1	PA_without_intermediate	test	ward_and_allport	71	35.0	3.129	to_hand	poldrack-single-stim	s622	False
489.735	0.1	0.23	489.965	0	PA_without_intermediate	test	ward_and_allport	82	35.0	0.23	to_board	poldrack-single-stim	s622	False
489.971	0.1	1.732	491.703	0	PA_without_intermediate	test	ward_and_allport	71	35.0	1.732	to_hand	poldrack-single-stim	s622	False
491.704	0.1	0.207	491.911	0	PA_without_intermediate	test	ward_and_allport	82	35.0	0.207	to_board	poldrack-single-stim	s622	False
491.919	0.1	0.862	492.781	0	PA_without_intermediate	test	ward_and_allport	71	35.0	0.862	to_hand	poldrack-single-stim	s622	False
492.783	0.1	0.141	492.924	0	PA_without_intermediate	test	ward_and_allport	89	35.0	0.141	to_board	poldrack-single-stim	s622	False
492.934	1.0	2.816	492.933	0	PA_without_intermediate	test	ward_and_allport	-1	35.0	n/a	feedback	poldrack-single-stim	s622	False
495.758	7.484	7.484	503.242	1	PA_with_intermediate	test	ward_and_allport	82	36.0	7.484	to_hand	poldrack-single-stim	s622	False
503.243	0.1	0.318	503.561	0	PA_with_intermediate	test	ward_and_allport	89	36.0	0.318	to_board	poldrack-single-stim	s622	False
503.567	0.1	0.508	504.075	0	PA_with_intermediate	test	ward_and_allport	82	36.0	0.508	to_hand	poldrack-single-stim	s622	False
504.077	0.1	0.411	504.488	0	PA_with_intermediate	test	ward_and_allport	71	36.0	0.411	to_board	poldrack-single-stim	s622	False
504.498	0.1	0.386	504.884	0	PA_with_intermediate	test	ward_and_allport	89	36.0	0.386	to_hand	poldrack-single-stim	s622	False
504.885	0.1	0.387	505.272	0	PA_with_intermediate	test	ward_and_allport	82	36.0	0.387	to_board	poldrack-single-stim	s622	False
505.281	1.0	4.176	505.28	0	PA_with_intermediate	test	ward_and_allport	-1	36.0	n/a	feedback	poldrack-single-stim	s622	False
509.464	3.846	3.846	513.31	1	PA_with_intermediate	test	ward_and_allport	82	37.0	3.846	to_hand	poldrack-single-stim	s622	False
513.311	0.1	0.458	513.769	0	PA_with_intermediate	test	ward_and_allport	71	37.0	0.458	to_board	poldrack-single-stim	s622	False
513.776	0.1	2.064	515.84	0	PA_with_intermediate	test	ward_and_allport	82	37.0	2.064	to_hand	poldrack-single-stim	s622	False
515.841	0.1	0.733	516.574	0	PA_with_intermediate	test	ward_and_allport	89	37.0	0.733	to_board	poldrack-single-stim	s622	False
516.583	0.1	1.501	518.084	0	PA_with_intermediate	test	ward_and_allport	71	37.0	1.501	to_hand	poldrack-single-stim	s622	False
518.085	0.1	0.36	518.445	0	PA_with_intermediate	test	ward_and_allport	82	37.0	0.36	to_board	poldrack-single-stim	s622	False
518.46	1.0	3.36	518.459	0	PA_with_intermediate	test	ward_and_allport	-1	37.0	n/a	feedback	poldrack-single-stim	s622	False
521.83	3.853	3.853	525.683	1	PA_with_intermediate	test	ward_and_allport	71	38.0	3.853	to_hand	poldrack-single-stim	s622	False
525.684	0.1	0.46	526.144	0	PA_with_intermediate	test	ward_and_allport	89	38.0	0.46	to_board	poldrack-single-stim	s622	False
526.153	0.1	0.45	526.603	0	PA_with_intermediate	test	ward_and_allport	71	38.0	0.45	to_hand	poldrack-single-stim	s622	False
526.604	0.1	0.368	526.972	0	PA_with_intermediate	test	ward_and_allport	82	38.0	0.368	to_board	poldrack-single-stim	s622	False
526.981	0.1	0.358	527.339	0	PA_with_intermediate	test	ward_and_allport	89	38.0	0.358	to_hand	poldrack-single-stim	s622	False
527.34	0.1	0.358	527.698	0	PA_with_intermediate	test	ward_and_allport	82	38.0	0.358	to_board	poldrack-single-stim	s622	False
527.708	1.0	2.0	527.707	0	PA_with_intermediate	test	ward_and_allport	-1	38.0	n/a	feedback	poldrack-single-stim	s622	False
529.715	2.509	2.509	532.224	1	PA_without_intermediate	test	ward_and_allport	82	39.0	2.509	to_hand	poldrack-single-stim	s622	False
532.226	0.1	0.255	532.481	0	PA_without_intermediate	test	ward_and_allport	89	39.0	0.255	to_board	poldrack-single-stim	s622	False
532.487	0.1	2.056	534.543	0	PA_without_intermediate	test	ward_and_allport	82	39.0	2.056	to_hand	poldrack-single-stim	s622	False
534.544	0.1	0.918	535.462	0	PA_without_intermediate	test	ward_and_allport	71	39.0	0.918	to_board	poldrack-single-stim	s622	False
535.469	0.1	1.022	536.491	0	PA_without_intermediate	test	ward_and_allport	82	39.0	1.022	to_hand	poldrack-single-stim	s622	False
536.492	0.1	0.23	536.722	0	PA_without_intermediate	test	ward_and_allport	89	39.0	0.23	to_board	poldrack-single-stim	s622	False
536.736	1.0	2.408	536.735	0	PA_without_intermediate	test	ward_and_allport	-1	39.0	n/a	feedback	poldrack-single-stim	s622	False
539.153	4.794	4.794	543.947	1	PA_with_intermediate	test	ward_and_allport	89	40.0	4.794	to_hand	poldrack-single-stim	s622	False
543.948	0.1	0.482	544.43	0	PA_with_intermediate	test	ward_and_allport	82	40.0	0.482	to_board	poldrack-single-stim	s622	False
544.439	0.1	1.44	545.879	0	PA_with_intermediate	test	ward_and_allport	89	40.0	1.44	to_hand	poldrack-single-stim	s622	False
545.88	0.1	0.296	546.176	0	PA_with_intermediate	test	ward_and_allport	71	40.0	0.296	to_board	poldrack-single-stim	s622	False
546.186	0.1	0.597	546.783	0	PA_with_intermediate	test	ward_and_allport	82	40.0	0.597	to_hand	poldrack-single-stim	s622	False
546.784	0.1	0.924	547.708	0	PA_with_intermediate	test	ward_and_allport	71	40.0	0.924	to_board	poldrack-single-stim	s622	False
547.72	1.0	2.816	547.719	0	PA_with_intermediate	test	ward_and_allport	-1	40.0	n/a	feedback	poldrack-single-stim	s622	False
550.544	2.239	2.239	552.783	1	PA_without_intermediate	test	ward_and_allport	82	41.0	2.239	to_hand	poldrack-single-stim	s622	False
552.784	0.1	0.367	553.151	0	PA_without_intermediate	test	ward_and_allport	89	41.0	0.367	to_board	poldrack-single-stim	s622	False
553.16	0.1	3.281	556.441	0	PA_without_intermediate	test	ward_and_allport	82	41.0	3.281	to_hand	poldrack-single-stim	s622	False
556.441	0.1	0.329	556.77	0	PA_without_intermediate	test	ward_and_allport	71	41.0	0.329	to_board	poldrack-single-stim	s622	False
556.779	0.1	0.636	557.415	0	PA_without_intermediate	test	ward_and_allport	82	41.0	0.636	to_hand	poldrack-single-stim	s622	False
557.416	0.1	0.233	557.649	0	PA_without_intermediate	test	ward_and_allport	89	41.0	0.233	to_board	poldrack-single-stim	s622	False
557.662	1.0	3.088	557.661	0	PA_without_intermediate	test	ward_and_allport	-1	41.0	n/a	feedback	poldrack-single-stim	s622	False
560.758	2.049	2.049	562.807	1	PA_without_intermediate	test	ward_and_allport	89	42.0	2.049	to_hand	poldrack-single-stim	s622	False
562.808	0.1	0.531	563.339	0	PA_without_intermediate	test	ward_and_allport	82	42.0	0.531	to_board	poldrack-single-stim	s622	False
563.346	0.1	1.273	564.619	0	PA_without_intermediate	test	ward_and_allport	89	42.0	1.273	to_hand	poldrack-single-stim	s622	False
564.62	0.1	0.421	565.041	0	PA_without_intermediate	test	ward_and_allport	71	42.0	0.421	to_board	poldrack-single-stim	s622	False
565.052	0.1	0.475	565.527	0	PA_without_intermediate	test	ward_and_allport	89	42.0	0.475	to_hand	poldrack-single-stim	s622	False
565.527	0.1	0.525	566.052	0	PA_without_intermediate	test	ward_and_allport	82	42.0	0.525	to_board	poldrack-single-stim	s622	False
566.063	1.0	2.136	566.062	0	PA_without_intermediate	test	ward_and_allport	-1	42.0	n/a	feedback	poldrack-single-stim	s622	False
